idx,imu_Timestamp[sec],mag_Timestamp[sec],baro_Timestamp[sec],accX[m/s^2],accY[m/s^2],accZ[m/s^2],gyroX[deg/s],gyroY[deg/s],gyroZ[deg/s],magX[uT],magY[uT],magZ[uT],orX[deg],orY[deg],orZ[deg],press[hPa],rel_alt[m],moving, temp_left[C],temp_right[C],temp_imu[C],temp_barom[C],
66664,167.806134000,167.795946000,152.011841000,-0.091654748,-0.413025916,10.041928291,0.012670535,0.169098198,0.097770959,0.125000000,-1.000000000,-3.000000000,-92.424552917,151.103607178,-0.366797328,1032.478271484,6.252906799,0.000000000,31.929998398,32.680000305,32.639999390,32.989997864,
66666,167.811174000,167.816106000,152.011841000,-0.091689996,-0.413030267,10.046693802,0.073920473,0.047489665,-0.087527260,0.125000000,-1.000000000,-3.000000000,-92.426254272,151.103515625,-0.370227873,1032.478271484,6.252610207,0.000000000,31.929998398,32.680000305,32.639999390,32.989997864,
66668,167.816214000,167.816106000,152.011841000,-0.079822101,-0.410643905,10.056221008,0.072747275,0.047134016,0.036361579,0.125000000,-1.000000000,-3.000000000,-92.419517517,151.103729248,-0.376606554,1032.478271484,6.252313137,0.000000000,31.929998398,32.680000305,32.639999390,32.989997864,
66670,167.821254000,167.816106000,152.011841000,-0.072621502,-0.411464363,10.048177719,-0.081115544,-0.076195404,0.003663009,0.125000000,-1.000000000,-3.000000000,-92.419067383,151.103790283,-0.375671625,1032.478271484,6.252015591,0.000000000,31.929998398,32.680000305,32.630001068,32.989997864,
66672,167.826294000,167.816106000,152.011841000,-0.070180975,-0.411457270,10.041031837,0.007436369,-0.167615667,0.066585846,0.125000000,-1.000000000,-3.000000000,-92.418724060,151.103805542,-0.374667585,1032.478271484,6.251718044,0.000000000,31.929998398,32.680000305,32.630001068,32.989997864,
66673,167.828814000,167.816106000,152.011841000,-0.067775689,-0.411454529,10.038650513,-0.022784552,-0.045476094,0.097288981,0.125000000,-1.000000000,-3.000000000,-92.415107727,151.104095459,-0.377036840,1032.478271484,6.251569271,0.000000000,31.929998398,32.680000305,32.630001068,32.989997864,
66675,167.833854000,167.836266000,152.011841000,-0.067793302,-0.416241139,10.041031837,0.125734612,0.047088660,0.037163485,0.125000000,-1.000000000,-3.000000000,-92.414512634,151.104187012,-0.377268225,1032.478271484,6.251270771,0.000000000,31.929998398,32.680000305,32.630001068,32.989997864,
66677,167.838894000,167.836266000,152.011841000,-0.070163362,-0.428200662,10.038650513,0.127344713,-0.044211656,-0.117714152,0.125000000,-1.000000000,-3.000000000,-92.414245605,151.103607178,-0.377380908,1032.478271484,6.250971794,0.000000000,31.929998398,32.680000305,32.630001068,32.989997864,
66679,167.843934000,167.836266000,152.011841000,-0.067846164,-0.432993233,10.048177719,0.007095926,-0.106364511,0.066613063,0.125000000,-1.000000000,-3.000000000,-92.414291382,151.104034424,-0.376860112,1032.478271484,6.250672340,0.000000000,31.929998398,32.680000305,32.630001068,32.989997864,
66681,167.848974000,167.836266000,152.011841000,-0.055995904,-0.437785745,10.060088158,0.124325559,0.077410005,0.161136732,0.125000000,-1.000000000,-3.000000000,-92.416542053,151.104095459,-0.372791797,1032.478271484,6.250372410,0.000000000,31.929998398,32.680000305,32.630001068,32.989997864,
66683,167.854014000,167.856426000,152.011841000,-0.048802305,-0.433734417,10.061882019,0.078040250,0.139352247,0.067136638,0.062500000,-1.000000000,-3.000000000,-92.419593811,151.104324341,-0.371243000,1032.478271484,6.250072002,0.000000000,31.929998398,32.680000305,32.649997711,32.989997864,
66685,167.859054000,167.856426000,152.011841000,-0.048767071,-0.431337863,10.057116508,0.047824558,-0.013945485,0.159452498,0.062500000,-1.000000000,-3.000000000,-92.420333862,151.104873657,-0.370389223,1032.478271484,6.249771595,0.000000000,31.929998398,32.680000305,32.649997711,32.989997864,
66687,167.864094000,167.856426000,152.011841000,-0.048944607,-0.441932470,10.060373306,0.065716453,-0.016326180,-0.086305566,0.062500000,-1.000000000,-3.000000000,-92.419853210,151.104217529,-0.369625092,1032.478271484,6.249471188,0.000000000,31.929998398,32.680000305,32.579998016,32.989997864,
66689,167.869134000,167.856426000,152.011841000,-0.051297031,-0.439536452,10.055607796,0.063563019,-0.016857227,0.130460426,0.062500000,-1.000000000,-3.000000000,-92.426605225,151.104690552,-0.364288032,1032.478271484,6.249170780,0.000000000,31.929998398,32.680000305,32.579998016,32.989997864,
66690,167.871654000,167.876586000,152.011841000,-0.053568330,-0.429865181,10.048768044,0.081675507,-0.015602287,0.191787928,0.062500000,-1.000000000,-3.000000000,-92.422332764,151.105178833,-0.364311934,1032.478271484,6.249020576,0.000000000,31.929998398,32.680000305,32.610000610,32.989997864,
66692,167.876694000,167.876586000,152.011841000,-0.063030921,-0.425072104,10.036856651,0.143345177,0.015916742,-0.086234458,0.062500000,-1.000000000,-3.000000000,-92.428665161,151.104812622,-0.360796869,1032.478271484,6.248720169,0.000000000,31.929998398,32.680000305,32.610000610,32.989997864,
66694,167.881734000,167.876586000,152.011841000,-0.065413937,-0.419549227,10.030301094,-0.017920816,-0.046972066,-0.025733391,0.062500000,-1.000000000,-3.000000000,-92.429138184,151.104766846,-0.364647478,1032.478271484,6.248419762,0.000000000,31.929998398,32.680000305,32.590000153,32.989997864,
66696,167.886774000,167.876586000,152.011841000,-0.058250923,-0.412370861,10.030301094,-0.017988585,-0.016403873,-0.025675269,0.062500000,-1.000000000,-3.000000000,-92.421180725,151.104690552,-0.362709373,1032.478271484,6.248118401,0.000000000,31.929998398,32.680000305,32.590000153,32.989997864,
66698,167.891814000,167.896746000,152.011841000,-0.058326062,-0.417903006,10.046385765,0.260476410,0.077311605,0.039261781,0.062500000,-1.000000000,-3.000000000,-92.420669556,151.104385376,-0.362653017,1032.478271484,6.247816563,0.000000000,31.929998398,32.680000305,32.610000610,32.989997864,
66700,167.896854000,167.896746000,152.011841000,-0.058449391,-0.432271540,10.063060760,-0.092514805,-0.260044664,-0.182100132,0.062500000,-1.000000000,-3.000000000,-92.420822144,151.103988647,-0.361561894,1032.478271484,6.247514248,0.000000000,31.929998398,32.680000305,32.610000610,32.989997864,
66702,167.901894000,167.896746000,152.011841000,-0.065594792,-0.434663296,10.060678482,0.142834738,0.138363525,-0.085798249,0.062500000,-1.000000000,-3.000000000,-92.420631409,151.103393555,-0.363241285,1032.478271484,6.247210979,0.000000000,31.929998398,32.680000305,32.610000610,32.989997864,
66704,167.906934000,167.896746000,152.011841000,-0.079938449,-0.432276666,10.063060760,0.113011561,-0.106554955,-0.024430932,0.062500000,-1.000000000,-3.000000000,-92.426132202,151.103317261,-0.366594136,1032.478271484,6.246907711,0.000000000,31.929998398,32.680000305,32.610000610,32.989997864,
66706,167.911974000,167.916906000,152.011841000,-0.084703162,-0.427403659,10.070513725,0.162097037,0.048212919,-0.148307085,0.062500000,-1.000000000,-3.000000000,-92.424804688,151.102966309,-0.368210346,1032.478271484,6.246604443,0.000000000,31.929998398,32.680000305,32.639999390,32.989997864,
66708,167.917014000,167.916906000,152.011841000,-0.087108448,-0.425014168,10.072895050,-0.017131181,0.199950218,-0.057265319,0.125000000,-1.000000000,-3.000000000,-92.423851013,151.102661133,-0.369018912,1032.478271484,6.246302128,0.000000000,31.929998398,32.680000305,32.639999390,32.989997864,
66710,167.922054000,167.916906000,152.011841000,-0.084867723,-0.424381703,10.077942848,0.098092295,0.044776160,0.162017271,0.125000000,-1.000000000,-3.000000000,-92.424781799,151.103042603,-0.380424708,1032.478271484,6.245999813,0.000000000,31.929998398,32.680000305,32.590000153,32.989997864,
66712,167.927094000,167.916906000,152.011841000,-0.072876491,-0.424372375,10.070796013,-0.019214496,-0.047215659,0.036496088,0.125000000,-1.000000000,-3.000000000,-92.424888611,151.103500366,-0.380399078,1032.478271484,6.245697498,0.000000000,31.929998398,32.680000305,32.590000153,32.989997864,
66714,167.932134000,167.937066000,152.011841000,-0.067914329,-0.421867579,10.054429054,0.060109615,0.016020956,-0.118069731,0.125000000,-1.000000000,-3.000000000,-92.424514771,151.102966309,-0.380523741,1032.478271484,6.245395660,0.000000000,31.929998398,32.680000305,32.619998932,32.989997864,
66716,167.937174000,167.937066000,152.011841000,-0.072636805,-0.414685518,10.047282219,0.146111727,0.107344858,0.161829636,0.062500000,-1.000000000,-2.937500000,-92.423057556,151.103332520,-0.381634533,1032.478271484,6.245094299,0.000000000,31.929998398,32.680000305,32.619998932,32.989997864,
66718,167.942214000,167.937066000,152.011841000,-0.065453835,-0.413115919,10.041622162,0.053222541,-0.045921016,-0.056085791,0.062500000,-1.000000000,-2.937500000,-92.421707153,151.103378296,-0.382257789,1032.478271484,6.244792938,0.000000000,31.929998398,32.680000305,32.610000610,32.989997864,
66720,167.947254000,167.937066000,152.011841000,-0.055938393,-0.408333570,10.046385765,-0.036781635,-0.016023571,0.035775304,0.062500000,-1.000000000,-2.937500000,-92.416587830,151.103668213,-0.381271631,1032.478271484,6.244490623,0.000000000,31.929998398,32.680000305,32.610000610,32.989997864,
66721,167.949774000,167.937066000,152.011841000,-0.053603575,-0.403555065,10.053530693,0.081939429,-0.076600783,0.037105724,0.062500000,-1.000000000,-2.937500000,-92.416763306,151.103775024,-0.375378788,1032.478271484,6.244339466,0.000000000,31.929998398,32.680000305,32.610000610,32.989997864,
66723,167.954814000,167.957226000,152.011841000,-0.055960659,-0.399505824,10.055324554,-0.024540443,0.046025496,0.035456259,0.062500000,-1.000000000,-3.000000000,-92.410530090,151.103820801,-0.372109622,1032.478271484,6.244037151,0.000000000,31.929998398,32.680000305,32.630001068,32.989997864,
66725,167.959854000,167.957226000,152.011841000,-0.053555377,-0.399503082,10.052942276,0.065396070,-0.014440514,-0.056399729,0.062500000,-1.000000000,-3.000000000,-92.404708862,151.103424072,-0.371138006,1032.478271484,6.243733883,0.000000000,31.929998398,32.680000305,32.630001068,32.989997864,
66727,167.964894000,167.957226000,152.011841000,-0.051134780,-0.403456092,10.051456451,0.101999164,0.016957866,-0.148949370,0.062500000,-1.000000000,-3.000000000,-92.401878357,151.102523804,-0.368604779,1032.478271484,6.243430614,0.000000000,31.929998398,32.680000305,32.639999390,32.989997864,
66729,167.969934000,167.957226000,152.011841000,-0.053522453,-0.408241093,10.051456451,0.010171432,-0.014876686,0.159672350,0.062500000,-1.000000000,-3.000000000,-92.399337769,151.103027344,-0.365777045,1032.478271484,6.243127346,0.000000000,31.929998398,32.680000305,32.639999390,32.989997864,
66731,167.974974000,167.977386000,152.011841000,-0.063138984,-0.405120879,10.054429054,0.148631111,-0.075506195,-0.117091745,0.125000000,-1.000000000,-3.000000000,-92.394432068,151.103027344,-0.364595383,1032.478271484,6.242824078,0.000000000,31.929998398,32.680000305,32.619998932,32.989997864,
66733,167.980014000,167.977386000,152.011841000,-0.070354857,-0.405129045,10.061574936,-0.208545104,-0.077460535,0.033573981,0.125000000,-1.000000000,-3.000000000,-92.391250610,151.103088379,-0.367579401,1032.478271484,6.242520332,0.000000000,31.929998398,32.680000305,32.619998932,32.989997864,
66735,167.985054000,167.977386000,152.011841000,-0.063154258,-0.417910606,10.053530693,0.112486176,0.046253722,-0.117167652,0.125000000,-1.000000000,-3.000000000,-92.391044617,151.103195190,-0.367505968,1032.478271484,6.242216110,0.000000000,31.929998398,32.680000305,32.610000610,32.989997864,
66737,167.990094000,167.977386000,152.011841000,-0.053480238,-0.429854304,10.036856651,-0.066449523,-0.138393164,0.035443131,0.125000000,-1.000000000,-3.000000000,-92.392425537,151.103134155,-0.365303189,1032.478271484,6.241911888,0.000000000,31.929998398,32.680000305,32.610000610,32.989997864,
66739,167.995134000,167.997546000,152.011841000,-0.050943300,-0.433704585,10.028531075,0.107323192,0.109110460,-0.087119542,0.125000000,-1.000000000,-2.937500000,-92.394546509,151.102828979,-0.363022715,1032.478271484,6.241607666,0.000000000,31.929998398,32.680000305,32.649997711,32.989997864,
66741,168.000174000,167.997546000,152.011841000,-0.058212034,-0.431327105,10.042823792,0.106963433,0.109011739,-0.056029938,0.125000000,-1.000000000,-2.937500000,-92.395507812,151.102325439,-0.361724943,1032.478271484,6.241302490,0.000000000,31.929998398,32.680000305,32.649997711,32.989997864,
66743,168.005214000,167.997546000,152.011841000,-0.060854692,-0.434666514,10.065442085,-0.006912472,-0.076890692,-0.025492668,0.125000000,-1.000000000,-2.937500000,-92.401321411,151.101852417,-0.361033380,1032.478271484,6.240997314,0.000000000,31.929998398,32.680000305,32.610000610,32.989997864,
66745,168.010254000,167.997546000,152.011841000,-0.058467019,-0.434665948,10.065442085,0.052107301,0.045766164,-0.024682689,0.125000000,-1.000000000,-2.937500000,-92.402503967,151.101959229,-0.362083524,1032.478271484,6.240691185,0.000000000,31.929998398,32.680000305,32.610000610,32.989997864,
66747,168.015294000,168.017706000,152.011841000,-0.063174225,-0.433831900,10.059192657,0.117040098,0.015652979,0.037705004,0.125000000,-1.000000000,-3.000000000,-92.402595520,151.102249146,-0.363267750,1032.478271484,6.240385532,0.000000000,31.929998398,32.680000305,32.619998932,32.989997864,
66748,168.017814000,168.017706000,152.011841000,-0.067896709,-0.429042071,10.052044868,0.236650899,0.169433624,-0.115571909,0.125000000,-1.000000000,-3.000000000,-92.405891418,151.101943970,-0.365407348,1032.478271484,6.240232944,0.000000000,31.929998398,32.680000305,32.619998932,32.989997864,
66750,168.022854000,168.017706000,152.011841000,-0.072737865,-0.418743998,10.055017471,0.077934377,-0.015288792,-0.302855611,0.125000000,-1.000000000,-3.000000000,-92.405250549,151.100982666,-0.365783870,1032.478271484,6.239927769,0.000000000,31.929998398,32.680000305,32.599998474,32.989997864,
66752,168.027894000,168.017706000,152.011841000,-0.072755493,-0.411569506,10.057401657,0.164019421,-0.107321054,0.007981436,0.125000000,-1.000000000,-3.000000000,-92.403915405,151.100708008,-0.367364228,1032.478271484,6.239621639,0.000000000,31.929998398,32.680000305,32.599998474,32.989997864,
66754,168.032934000,168.037866000,152.011841000,-0.074862257,-0.416881323,10.043131828,-0.023908224,-0.043579277,0.065718427,0.125000000,-1.000000000,-3.000000000,-92.403297424,151.100891113,-0.368986458,1032.478271484,6.239315510,0.000000000,31.929998398,32.680000305,32.680000305,32.989997864,
66756,168.037974000,168.037866000,152.011841000,-0.077232309,-0.428840786,10.040748596,0.124158323,0.018271290,0.067525908,0.125000000,-1.000000000,-2.937500000,-92.402732849,151.101013184,-0.369631052,1032.478271484,6.239009380,0.000000000,31.929998398,32.680000305,32.680000305,32.989997864,
66758,168.043014000,168.037866000,152.011841000,-0.072621502,-0.428209931,10.048177719,0.064921588,0.046868492,-0.117733784,0.125000000,-1.000000000,-2.937500000,-92.402633667,151.100753784,-0.369514942,1032.478271484,6.238703251,0.000000000,31.929998398,32.680000305,32.630001068,32.989997864,
66760,168.048054000,168.037866000,152.011841000,-0.072639115,-0.421035439,10.050559044,0.064337395,0.016122662,-0.055695206,0.125000000,-1.000000000,-2.937500000,-92.402183533,151.100204468,-0.369574696,1032.478271484,6.238396645,0.000000000,31.929998398,32.680000305,32.630001068,32.989997864,
66762,168.053094000,168.058026000,152.011841000,-0.077333368,-0.413761497,10.048484802,0.141211495,0.078584105,0.037508719,0.125000000,-1.000000000,-2.937500000,-92.401008606,151.100067139,-0.370487422,1032.478271484,6.238089561,0.000000000,31.929998398,32.680000305,32.659999847,32.989997864,
66764,168.058134000,168.058026000,152.011841000,-0.077368610,-0.416158080,10.053249359,0.200318456,-0.043557346,0.068950027,0.062500000,-1.000000000,-3.000000000,-92.400131226,151.100662231,-0.370521575,1032.478271484,6.237782478,0.000000000,31.929998398,32.680000305,32.659999847,32.989997864,
66766,168.063174000,168.058026000,152.011841000,-0.075211324,-0.424366415,10.063650131,0.039923098,-0.077380173,-0.148059383,0.062500000,-1.000000000,-3.000000000,-92.403747559,151.100357056,-0.376090854,1032.478271484,6.237474918,0.000000000,31.929998398,32.680000305,32.590000153,32.989997864,
66768,168.068214000,168.058026000,152.011841000,-0.075264178,-0.424372911,10.070796013,0.066991240,0.013783535,0.100265354,0.062500000,-1.000000000,-3.000000000,-92.403640747,151.100234985,-0.377698541,1032.478271484,6.237166882,0.000000000,31.929998398,32.680000305,32.590000153,32.989997864,
66770,168.073254000,168.078186000,152.011841000,-0.065597132,-0.429052323,10.063956261,0.146362737,-0.075880840,-0.023574371,0.062500000,-1.000000000,-3.000000000,-92.403312683,151.100204468,-0.377567887,1032.478271484,6.236858845,0.000000000,31.929998398,32.680000305,32.619998932,32.989997864,
66772,168.078294000,168.078186000,152.011841000,-0.053641140,-0.436224014,10.061574936,-0.003789581,0.106450312,0.129652664,0.125000000,-1.000000000,-3.000000000,-92.404090881,151.100677490,-0.376285493,1032.478271484,6.236551762,0.000000000,31.929998398,32.680000305,32.619998932,32.989997864,
66774,168.083334000,168.078186000,152.011841000,-0.058401193,-0.425827354,10.062470436,0.093600810,0.016081627,-0.086437963,0.125000000,-1.000000000,-3.000000000,-92.403564453,151.100662231,-0.376568973,1032.478271484,6.236244678,0.000000000,31.929998398,32.680000305,32.630001068,32.989997864,
66776,168.088374000,168.078186000,152.011841000,-0.063211776,-0.418656170,10.067234993,0.091013126,0.076666631,0.161405310,0.125000000,-1.000000000,-3.000000000,-92.403289795,151.101028442,-0.376440912,1032.478271484,6.235937595,0.000000000,31.929998398,32.680000305,32.630001068,32.989997864,
66778,168.093414000,168.098346000,152.011841000,-0.058484633,-0.417922556,10.067824364,0.020765269,-0.107628465,0.036967091,0.125000000,-1.000000000,-3.000000000,-92.402755737,151.100921631,-0.375821054,1032.478271484,6.235630512,0.000000000,31.929998398,32.680000305,32.610000610,32.989997864,
66780,168.098454000,168.098346000,152.011841000,-0.053638808,-0.410736054,10.058296204,0.139271617,0.045855224,0.007500121,0.125000000,-1.000000000,-3.000000000,-92.399642944,151.101196289,-0.374160439,1032.478271484,6.235323429,0.000000000,31.929998398,32.680000305,32.610000610,32.989997864,
66782,168.103494000,168.098346000,152.011841000,-0.058295477,-0.413853198,10.048177719,0.121355705,0.046398811,0.068729140,0.125000000,-1.000000000,-3.000000000,-92.397644043,151.101287842,-0.373059899,1032.478271484,6.235016346,0.000000000,31.929998398,32.680000305,32.630001068,32.989997864,
66783,168.106014000,168.098346000,152.011841000,-0.063088432,-0.418640941,10.050559044,0.181816220,0.016403873,-0.054493397,0.125000000,-1.000000000,-3.000000000,-92.400497437,151.101181030,-0.369721562,1032.478271484,6.234862804,0.000000000,31.929998398,32.680000305,32.630001068,32.989997864,
66785,168.111054000,168.098346000,152.011841000,-0.070269078,-0.430605948,10.052942276,0.062131669,0.046163488,0.037079096,0.125000000,-1.000000000,-3.000000000,-92.400421143,151.101089478,-0.369151235,1032.478271484,6.234555721,0.000000000,31.929998398,32.680000305,32.630001068,32.989997864,
66787,168.116094000,168.118506000,152.011841000,-0.063088432,-0.430602074,10.050559044,0.061565939,0.015434413,0.098955899,0.125000000,-1.000000000,-3.000000000,-92.400779724,151.101364136,-0.368042141,1032.478271484,6.234248638,0.000000000,31.929998398,32.680000305,32.630001068,32.989997864,
66789,168.121134000,168.118506000,152.011841000,-0.058277860,-0.428204328,10.045796394,-0.055965077,-0.076639205,0.004482592,0.125000000,-1.000000000,-3.000000000,-92.402534485,151.101440430,-0.366305560,1032.478271484,6.233941555,0.000000000,31.929998398,32.680000305,32.630001068,32.989997864,
66791,168.126174000,168.118506000,152.011841000,-0.055993572,-0.436220258,10.056810379,-0.061329335,0.076083399,-0.119080439,0.125000000,-1.000000000,-3.000000000,-92.405654907,151.101272583,-0.365750581,1032.478271484,6.233633995,0.000000000,31.929998398,32.680000305,32.619998932,32.989997864,
66793,168.131214000,168.118506000,152.011841000,-0.058451723,-0.433837265,10.066337585,0.056050241,-0.046103671,0.037058871,0.125000000,-1.000000000,-3.000000000,-92.407081604,151.101547241,-0.365549088,1032.478271484,6.233325958,0.000000000,31.929998398,32.680000305,32.619998932,32.989997864,
66795,168.136254000,168.138666000,152.011841000,-0.067800306,-0.416153640,10.050867081,0.019969765,0.077396236,0.190521806,0.062500000,-1.000000000,-3.000000000,-92.406288147,151.102218628,-0.365821451,1032.478271484,6.233017921,0.000000000,31.929998398,32.680000305,32.659999847,32.989997864,
66797,168.141294000,168.138666000,152.011841000,-0.065342136,-0.411359966,10.041337967,0.200397000,0.078911789,-0.086150259,0.062500000,-1.000000000,-3.000000000,-92.404510498,151.102050781,-0.365774482,1032.478271484,6.232709885,0.000000000,31.929998398,32.680000305,32.659999847,32.989997864,
66799,168.146334000,168.138666000,152.011841000,-0.053484894,-0.413847715,10.043414116,0.033898871,-0.014788641,-0.118381038,0.062500000,-1.000000000,-3.000000000,-92.403488159,151.101715088,-0.365380049,1032.478271484,6.232401848,0.000000000,31.929998398,32.680000305,32.630001068,32.989997864,
66801,168.151374000,168.138666000,152.011841000,-0.051097225,-0.421023816,10.043414116,0.210824892,0.077494897,-0.054099113,0.062500000,-1.000000000,-3.000000000,-92.402633667,151.101181030,-0.366025478,1032.478271484,6.232093334,0.000000000,31.929998398,32.680000305,32.630001068,32.989997864,
66803,168.156414000,168.158826000,152.011841000,-0.058497597,-0.438715786,10.063650131,0.097367547,-0.169364035,-0.054639392,0.062500000,-1.000000000,-3.000000000,-92.404808044,151.100891113,-0.367900431,1032.478271484,6.231784344,0.000000000,31.929998398,32.680000305,32.590000153,32.989997864,
66805,168.161454000,168.158826000,152.011841000,-0.056215644,-0.431551576,10.077942848,0.154756188,0.075207964,0.070251860,0.062500000,-1.000000000,-3.000000000,-92.410156250,151.100799561,-0.364783227,1032.478271484,6.231475353,0.000000000,31.929998398,32.680000305,32.590000153,32.989997864,
66807,168.166494000,168.158826000,152.011841000,-0.041889600,-0.414802611,10.077942848,-0.053060539,0.043536961,0.098657973,0.062500000,-1.000000000,-3.000000000,-92.406089783,151.101181030,-0.356459618,1032.478271484,6.231166363,0.000000000,31.929998398,32.680000305,32.590000153,32.989997864,
66809,168.171534000,168.158826000,152.011841000,-0.044189181,-0.410007894,10.066033363,0.006868182,-0.078343228,0.068218611,0.062500000,-1.000000000,-3.000000000,-92.404319763,151.101425171,-0.354612023,1032.478271484,6.230857849,0.000000000,31.929998398,32.680000305,32.590000153,32.989997864,
66811,168.176574000,168.178986000,152.011841000,-0.058361296,-0.408338457,10.051149368,0.049207564,0.198130190,-0.024501717,0.125000000,-1.000000000,-3.000000000,-92.403831482,151.101638794,-0.353924721,1032.478271484,6.230549812,0.000000000,31.929998398,32.680000305,32.610000610,32.989997864,
66813,168.181614000,168.178986000,152.011841000,-0.060660873,-0.413112611,10.039237976,0.049572021,-0.107687995,0.006207602,0.125000000,-1.000000000,-3.000000000,-92.403564453,151.101440430,-0.353549063,1032.478271484,6.230241776,0.000000000,31.929998398,32.680000305,32.610000610,32.989997864,
66815,168.186654000,168.178986000,152.011841000,-0.074738912,-0.404904932,10.026455879,0.062263258,-0.043553609,0.128525555,0.125000000,-1.000000000,-3.000000000,-92.396286011,151.101882935,-0.357828259,1032.478271484,6.229933739,0.000000000,31.929998398,32.680000305,32.680000305,32.989997864,
66816,168.189174000,168.178986000,152.011841000,-0.079514258,-0.402513862,10.026455879,0.003607727,-0.074211605,0.065790199,0.125000000,-1.000000000,-3.000000000,-92.398315430,151.102035522,-0.352625251,1032.478271484,6.229778767,0.000000000,31.929998398,32.680000305,32.680000305,32.989997864,
66818,168.194214000,168.199146000,152.011841000,-0.082172222,-0.421035558,10.048177719,0.033000488,-0.045202672,-0.087493591,0.125000000,-1.000000000,-3.000000000,-92.395645142,151.102096558,-0.362869889,1032.478271484,6.229468822,0.000000000,31.929998398,32.680000305,32.630001068,32.989997864,
66820,168.199254000,168.199146000,152.011841000,-0.079890251,-0.428224683,10.062470436,0.060931586,-0.076021075,0.098646685,0.125000000,-1.000000000,-3.000000000,-92.396446228,151.102447510,-0.363261759,1032.478271484,6.229158878,0.000000000,31.929998398,32.680000305,32.630001068,32.989997864,
66822,168.204294000,168.199146000,152.011841000,-0.075183056,-0.426666707,10.068720818,0.025714489,0.107066527,-0.025206933,0.125000000,-1.000000000,-3.000000000,-92.396575928,151.102142334,-0.363577664,1032.478271484,6.228848934,0.000000000,31.929998398,32.680000305,32.619998932,32.989997864,
66824,168.209334000,168.199146000,152.011841000,-0.060804170,-0.426656812,10.061574936,0.055246521,0.015292848,0.006075894,0.125000000,-1.000000000,-3.000000000,-92.397140503,151.101913452,-0.363219947,1032.478271484,6.228538990,0.000000000,31.929998398,32.680000305,32.619998932,32.989997864,
66826,168.214374000,168.219306000,152.011841000,-0.053687014,-0.424356967,10.058886528,-0.022608567,-0.078091152,0.005803887,0.125000000,-1.000000000,-3.000000000,-92.397773743,151.101943970,-0.362319201,1032.478271484,6.228229046,0.000000000,31.929998398,32.680000305,32.590000153,32.989997864,
66828,168.219414000,168.219306000,152.011841000,-0.060867645,-0.424360842,10.061267853,0.035729360,-0.047505192,0.099398360,0.062500000,-1.000000000,-3.000000000,-92.398010254,151.102355957,-0.362154394,1032.478271484,6.227919102,0.000000000,31.929998398,32.680000305,32.590000153,32.989997864,
66830,168.224454000,168.219306000,152.011841000,-0.067931943,-0.421869755,10.056810379,0.024979603,0.015062008,0.067537248,0.062500000,-1.000000000,-3.000000000,-92.397789001,151.102645874,-0.362288445,1032.478271484,6.227609158,0.000000000,31.929998398,32.680000305,32.619998932,32.989997864,
66832,168.229494000,168.219306000,152.011841000,-0.072636805,-0.419469953,10.047282219,0.084605984,-0.045765843,0.037159819,0.062500000,-1.000000000,-3.000000000,-92.397247314,151.102813721,-0.362307221,1032.478271484,6.227299213,0.000000000,31.929998398,32.680000305,32.619998932,32.989997864,
66834,168.234534000,168.239466000,152.011841000,-0.072599225,-0.425076514,10.039237976,0.077775575,-0.076979324,0.099133559,0.062500000,-1.000000000,-3.000000000,-92.397254944,151.103469849,-0.361984491,1032.478271484,6.226989269,0.000000000,31.929998398,32.680000305,32.610000610,32.989997864,
66836,168.239574000,168.239466000,152.011841000,-0.070229180,-0.425078183,10.041622162,0.018622192,-0.046509162,0.067389712,0.125000000,-1.000000000,-3.000000000,-92.403030396,151.103851318,-0.368885696,1032.478271484,6.226678848,0.000000000,31.929998398,32.680000305,32.610000610,32.989997864,
66837,168.242094000,168.239466000,152.011841000,-0.070264421,-0.429866970,10.046385765,0.049728792,0.076405324,-0.117958501,0.125000000,-1.000000000,-3.000000000,-92.399391174,151.103576660,-0.366265386,1032.478271484,6.226523399,0.000000000,31.929998398,32.680000305,32.610000610,32.989997864,
66839,168.247134000,168.239466000,152.011841000,-0.063174225,-0.426655233,10.059192657,0.054043766,-0.015408106,0.098568186,0.125000000,-1.000000000,-3.000000000,-92.399070740,151.103912354,-0.365833402,1032.478271484,6.226212502,0.000000000,31.929998398,32.680000305,32.619998932,32.989997864,
66841,168.252174000,168.239466000,152.011841000,-0.058398869,-0.421869665,10.059192657,0.084141955,0.015425716,0.037016023,0.125000000,-1.000000000,-3.000000000,-92.399024963,151.103775024,-0.364686757,1032.478271484,6.225901127,0.000000000,31.929998398,32.680000305,32.619998932,32.989997864,
66843,168.257214000,168.259626000,152.011841000,-0.060918186,-0.427586287,10.065137863,-0.087736450,-0.078516334,-0.087982126,0.062500000,-1.000000000,-3.000000000,-92.399368286,151.103424072,-0.363263488,1032.478271484,6.225589275,0.000000000,31.929998398,32.680000305,32.579998016,32.989997864,
66845,168.262254000,168.259626000,152.011841000,-0.068081208,-0.429980218,10.065137863,0.090061165,-0.047107443,-0.085725211,0.062500000,-1.000000000,-3.000000000,-92.401077271,151.102905273,-0.360906154,1032.478271484,6.225277424,0.000000000,31.929998398,32.680000305,32.579998016,32.989997864,
66847,168.267294000,168.259626000,152.011841000,-0.072593272,-0.420941412,10.053249359,0.316820413,-0.042677157,0.007888309,0.062500000,-1.000000000,-3.000000000,-92.403312683,151.103012085,-0.370667577,1032.478271484,6.224966526,0.000000000,31.929998398,32.680000305,32.659999847,32.989997864,
66849,168.272334000,168.259626000,152.011841000,-0.070240840,-0.425729632,10.058012962,0.049586002,-0.074499592,0.035654016,0.062500000,-1.000000000,-3.000000000,-92.403533936,151.103073120,-0.369812042,1032.478271484,6.224655628,0.000000000,31.929998398,32.680000305,32.659999847,32.989997864,
66851,168.277374000,168.279786000,152.011841000,-0.067886062,-0.426560104,10.059500694,0.044706576,0.047798198,-0.149839491,0.125000000,-1.000000000,-3.062500000,-92.403823853,151.102630615,-0.369581550,1032.478271484,6.224343777,0.000000000,31.929998398,32.680000305,32.649997711,32.989997864,
66853,168.282414000,168.279786000,152.011841000,-0.075013846,-0.409811914,10.054735184,0.162075371,0.048007000,-0.024441538,0.125000000,-1.000000000,-3.062500000,-92.402198792,151.102340698,-0.370949298,1032.478271484,6.224031925,0.000000000,31.929998398,32.680000305,32.649997711,32.989997864,
66855,168.287454000,168.279786000,152.011841000,-0.082260318,-0.411477506,10.060088158,0.178899303,-0.013995111,0.007146899,0.125000000,-1.000000000,-3.062500000,-92.400650024,151.102539062,-0.373004407,1032.478271484,6.223720074,0.000000000,31.929998398,32.680000305,32.630001068,32.989997864,
66857,168.292494000,168.279786000,152.011841000,-0.075132526,-0.423441261,10.064851761,0.120051250,-0.014157648,-0.055513084,0.125000000,-1.000000000,-3.062500000,-92.400390625,151.102493286,-0.373785585,1032.478271484,6.223408222,0.000000000,31.929998398,32.680000305,32.630001068,32.989997864,
66859,168.297534000,168.299946000,152.011841000,-0.065566540,-0.427394778,10.065749168,0.243155167,0.017071579,0.100587815,0.125000000,-1.000000000,-3.000000000,-92.399627686,151.102844238,-0.373100013,1032.478271484,6.223096371,0.000000000,31.929998398,32.680000305,32.639999390,32.989997864,
66861,168.302574000,168.299946000,152.011841000,-0.060755957,-0.427389294,10.060984612,0.212464243,0.047274675,0.193123475,0.125000000,-1.000000000,-3.000000000,-92.399383545,151.103271484,-0.372609079,1032.478271484,6.222784996,0.000000000,31.929998398,32.680000305,32.639999390,32.989997864,
66863,168.307614000,168.299946000,152.011841000,-0.058361296,-0.427476257,10.051149368,0.077290848,-0.045836225,-0.024725726,0.125000000,-1.000000000,-3.000000000,-92.400291443,151.103286743,-0.368936926,1032.478271484,6.222474098,0.000000000,31.929998398,32.680000305,32.610000610,32.989997864,
66865,168.312654000,168.299946000,152.011841000,-0.058378916,-0.434655100,10.053530693,0.166628763,-0.014600277,-0.085523963,0.125000000,-1.000000000,-3.000000000,-92.407012939,151.102920532,-0.371136278,1032.478271484,6.222163200,0.000000000,31.929998398,32.680000305,32.610000610,32.989997864,
66866,168.315174000,168.320106000,152.011841000,-0.060804170,-0.436225712,10.061574936,0.023340890,0.015435267,0.036470182,0.125000000,-1.000000000,-3.000000000,-92.402954102,151.103012085,-0.371781766,1032.478271484,6.222007751,0.000000000,31.929998398,32.680000305,32.619998932,32.989997864,
66868,168.320214000,168.320106000,152.011841000,-0.068002425,-0.438623995,10.066337585,-0.154825553,0.045082398,0.065376341,0.062500000,-1.000000000,-3.000000000,-92.411590576,151.102874756,-0.371420622,1032.478271484,6.221696377,0.000000000,31.929998398,32.680000305,32.619998932,32.989997864,
66870,168.325254000,168.320106000,152.011841000,-0.070405379,-0.429884315,10.065442085,0.107389145,-0.137264773,-0.055306230,0.062500000,-1.000000000,-3.000000000,-92.411384583,151.102539062,-0.371568322,1032.478271484,6.221385479,0.000000000,31.929998398,32.680000305,32.610000610,32.989997864,
66872,168.330294000,168.320106000,152.011841000,-0.067982465,-0.420310527,10.060678482,0.105677433,0.045928966,0.068736427,0.062500000,-1.000000000,-3.000000000,-92.410957336,151.102874756,-0.371997774,1032.478271484,6.221074581,0.000000000,31.929998398,32.680000305,32.610000610,32.989997864,
66874,168.335334000,168.340266000,152.011841000,-0.060837064,-0.420311004,10.063060760,-0.011360099,-0.045919683,-0.087571457,0.062500000,-1.000000000,-3.000000000,-92.410514832,151.102416992,-0.371549547,1032.478271484,6.220763683,0.000000000,31.929998398,32.680000305,32.610000610,32.989997864,
66876,168.340374000,168.340266000,152.011841000,-0.058431778,-0.427484930,10.060678482,0.076867804,0.137783706,-0.055234406,0.125000000,-1.000000000,-3.000000000,-92.410461426,151.101852417,-0.371169567,1032.478271484,6.220452785,0.000000000,31.929998398,32.680000305,32.610000610,32.989997864,
66877,168.342894000,168.340266000,152.011841000,-0.060801823,-0.434659988,10.058296204,0.105283737,0.015176253,0.099848256,0.125000000,-1.000000000,-3.000000000,-92.409378052,151.102096558,-0.365613103,1032.478271484,6.220297337,0.000000000,31.929998398,32.680000305,32.610000610,32.989997864,
66880,168.350454000,168.340266000,152.011841000,-0.075110249,-0.432269007,10.055914879,0.017081983,-0.046168610,0.036835466,0.125000000,-1.000000000,-3.000000000,-92.411415100,151.101760864,-0.371216536,1032.478271484,6.219830990,0.000000000,31.929998398,32.680000305,32.610000610,32.989997864,
66882,168.355494000,168.360426000,152.011841000,-0.086916976,-0.424163759,10.049970627,0.041395001,-0.013869873,0.098046318,0.125000000,-1.000000000,-3.000000000,-92.410736084,151.102127075,-0.375290006,1032.478271484,6.219520092,0.000000000,31.929998398,32.680000305,32.649997711,32.989997864,
66884,168.360534000,168.360426000,152.011841000,-0.086899355,-0.421769351,10.047589302,0.130455434,0.139522299,0.037261002,0.125000000,-1.000000000,-3.000000000,-92.410415649,151.102264404,-0.381112844,1032.478271484,6.219209194,0.000000000,31.929998398,32.680000305,32.649997711,32.989997864,
66886,168.365574000,168.360426000,152.011841000,-0.072619185,-0.426644444,10.044899940,-0.063957036,-0.198564857,-0.119484052,0.125000000,-1.000000000,-3.000000000,-92.411331177,151.101852417,-0.382317543,1032.478271484,6.218898296,0.000000000,31.929998398,32.680000305,32.619998932,32.989997864,
66888,168.370614000,168.360426000,152.011841000,-0.055852614,-0.429026186,10.037752151,0.112568453,0.077315234,-0.055094440,0.125000000,-1.000000000,-3.000000000,-92.411834717,151.101699829,-0.384089172,1032.478271484,6.218586922,0.000000000,31.929998398,32.680000305,32.619998932,32.989997864,
66890,168.375654000,168.380586000,152.011841000,-0.046438221,-0.437871188,10.050253868,0.218559653,-0.045440823,-0.022395657,0.125000000,-1.000000000,-3.000000000,-92.415641785,151.101364136,-0.374280810,1032.478271484,6.218275070,0.000000000,31.929998398,32.680000305,32.599998474,32.989997864,
66892,168.380694000,168.380586000,152.011841000,-0.046508703,-0.447448820,10.059782982,0.069409236,0.045461740,0.037872266,0.062500000,-1.000000000,-3.000000000,-92.421752930,151.101440430,-0.368708938,1032.478271484,6.217963219,0.000000000,31.929998398,32.680000305,32.599998474,32.989997864,
66894,168.385734000,168.380586000,152.011841000,-0.051352203,-0.443500698,10.066033363,0.034359694,0.014498143,-0.055269971,0.062500000,-1.000000000,-3.000000000,-92.424270630,151.101348877,-0.367528170,1032.478271484,6.217650414,0.000000000,31.929998398,32.680000305,32.590000153,32.989997864,
66895,168.388254000,168.380586000,152.011841000,-0.051334582,-0.436321855,10.063650131,0.064629920,-0.138128385,-0.086010441,0.062500000,-1.000000000,-3.000000000,-92.428039551,151.101150513,-0.368671387,1032.478271484,6.217494011,0.000000000,31.929998398,32.680000305,32.590000153,32.989997864,
66897,168.393294000,168.380586000,152.011841000,-0.060885265,-0.431539685,10.063650131,0.003730244,0.044791956,0.037375130,0.062500000,-1.000000000,-3.000000000,-92.428146362,151.101226807,-0.368282080,1032.478271484,6.217181683,0.000000000,31.929998398,32.680000305,32.590000153,32.989997864,
66899,168.398334000,168.400746000,152.011841000,-0.067949571,-0.433833033,10.059192657,-0.036819309,0.045892950,0.036112063,0.125000000,-1.000000000,-3.000000000,-92.428329468,151.101333618,-0.368266702,1032.478271484,6.216869831,0.000000000,31.929998398,32.680000305,32.619998932,32.989997864,
66901,168.403374000,168.400746000,152.011841000,-0.070354857,-0.433835745,10.061574936,0.171086311,-0.014152739,0.007516743,0.125000000,-1.000000000,-3.000000000,-92.427665710,151.101470947,-0.368403316,1032.478271484,6.216557980,0.000000000,31.929998398,32.680000305,32.619998932,32.989997864,
66903,168.408414000,168.400746000,152.011841000,-0.068010733,-0.429971546,10.055607796,-0.090391152,-0.200450927,-0.025739515,0.125000000,-1.000000000,-3.000000000,-92.428047180,151.101425171,-0.368135214,1032.478271484,6.216246128,0.000000000,31.929998398,32.680000305,32.579998016,32.989997864,
66905,168.413454000,168.400746000,152.011841000,-0.060777232,-0.422784477,10.046079636,-0.002593338,0.044500284,0.037543748,0.125000000,-1.000000000,-3.000000000,-92.427940369,151.101348877,-0.367918372,1032.478271484,6.215934277,0.000000000,31.929998398,32.680000305,32.579998016,32.989997864,
66907,168.418494000,168.420906000,152.011841000,-0.053502515,-0.416242093,10.045796394,0.146852702,-0.075067781,0.099862956,0.125000000,-1.000000000,-3.000000000,-92.427566528,151.101531982,-0.366908312,1032.478271484,6.215622425,0.000000000,31.929998398,32.680000305,32.630001068,32.989997864,
66909,168.423534000,168.420906000,152.011841000,-0.060700763,-0.421032608,10.050559044,0.030170333,-0.044470403,-0.118313767,0.125000000,-1.000000000,-3.000000000,-92.427452087,151.101181030,-0.366677791,1032.478271484,6.215310097,0.000000000,31.929998398,32.680000305,32.630001068,32.989997864,
66911,168.428574000,168.420906000,152.011841000,-0.070297346,-0.416344732,10.047872543,0.009006672,0.106442206,0.099226125,0.125000000,-1.000000000,-3.000000000,-92.426811218,151.101287842,-0.368084848,1032.478271484,6.214997292,0.000000000,31.929998398,32.680000305,32.599998474,32.989997864,
66913,168.433614000,168.420906000,152.011841000,-0.072544061,-0.413935661,10.028816223,0.009939100,-0.046313006,0.037034567,0.125000000,-1.000000000,-3.000000000,-92.425163269,151.101654053,-0.370664150,1032.478271484,6.214684486,0.000000000,31.929998398,32.680000305,32.599998474,32.989997864,
66915,168.438654000,168.441066000,152.011841000,-0.074865907,-0.426627606,10.025843620,0.051653840,0.138198853,0.037213858,0.062500000,-1.000000000,-3.000000000,-92.424545288,151.101654053,-0.371567458,1032.478271484,6.214371681,0.000000000,31.929998398,32.680000305,32.619998932,32.989997864,
66917,168.443694000,168.441066000,152.011841000,-0.082117029,-0.429032415,10.037752151,0.023059359,-0.075797655,-0.025312055,0.062500000,-1.000000000,-3.000000000,-92.424247742,151.101623535,-0.371385574,1032.478271484,6.214056969,0.000000000,31.929998398,32.680000305,32.619998932,32.989997864,
66919,168.448734000,168.441066000,152.011841000,-0.086813577,-0.423323959,10.038956642,0.107262783,0.079269364,-0.056067344,0.062500000,-1.000000000,-3.000000000,-92.423904419,151.101257324,-0.371762127,1032.478271484,6.213742256,0.000000000,31.929998398,32.680000305,32.659999847,32.989997864,
66921,168.453774000,168.441066000,152.011841000,-0.089289345,-0.425727636,10.050867081,0.136076480,0.140329495,0.006338029,0.062500000,-1.000000000,-3.000000000,-92.423889160,151.101104736,-0.383552134,1032.478271484,6.213427067,0.000000000,31.929998398,32.680000305,32.659999847,32.989997864,
66922,168.456294000,168.461226000,152.011841000,-0.087103806,-0.433844060,10.066337585,-0.008269545,0.076453671,0.098468527,0.062500000,-1.000000000,-3.000000000,-92.426017761,151.101318359,-0.378872484,1032.478271484,6.213269234,0.000000000,31.929998398,32.680000305,32.619998932,32.989997864,
66924,168.461334000,168.461226000,152.011841000,-0.075218298,-0.443416655,10.073485374,0.141016304,-0.014464580,0.007172526,0.125000000,-1.000000000,-3.000000000,-92.429077148,151.101425171,-0.382642865,1032.478271484,6.212953568,0.000000000,31.929998398,32.680000305,32.619998932,32.989997864,
66926,168.466374000,168.461226000,152.011841000,-0.063277595,-0.444240332,10.070207596,0.015339431,0.045490235,0.067924552,0.125000000,-1.000000000,-3.000000000,-92.431297302,151.101562500,-0.383161962,1032.478271484,6.212637901,0.000000000,31.929998398,32.680000305,32.610000610,32.989997864,
66928,168.471414000,168.461226000,152.011841000,-0.053638808,-0.429873854,10.058296204,-0.043046519,-0.107460059,0.005059503,0.125000000,-1.000000000,-3.000000000,-92.431831360,151.101760864,-0.382367909,1032.478271484,6.212322712,0.000000000,31.929998398,32.680000305,32.610000610,32.989997864,
66930,168.476454000,168.481386000,152.011841000,-0.053482570,-0.429027796,10.040136337,0.051710401,-0.045476466,0.036930393,0.125000000,-1.000000000,-3.000000000,-92.431777954,151.102020264,-0.382306457,1032.478271484,6.212007999,0.000000000,31.929998398,32.680000305,32.619998932,32.989997864,
66932,168.481489000,168.481386000,152.011841000,-0.051077269,-0.436201721,10.037752151,0.228722870,0.261020213,0.039355576,0.125000000,-1.000000000,-3.062500000,-92.434608459,151.101989746,-0.382292777,1032.478271484,6.211693287,0.000000000,31.929998398,32.680000305,32.619998932,32.989997864,
66934,168.486524000,168.481386000,152.011841000,-0.046240754,-0.430493176,10.041337967,0.016834496,0.108736984,0.035638340,0.125000000,-1.000000000,-3.062500000,-92.434326172,151.102066040,-0.371657103,1032.478271484,6.211378098,0.000000000,31.929998398,32.680000305,32.659999847,32.989997864,
66936,168.491559000,168.481386000,152.011841000,-0.048698910,-0.428110182,10.050867081,0.106759697,0.048286237,-0.056314711,0.125000000,-1.000000000,-3.062500000,-92.434143066,151.102096558,-0.371346325,1032.478271484,6.211062431,0.000000000,31.929998398,32.680000305,32.659999847,32.989997864,
66938,168.496594000,168.501526000,152.011841000,-0.058482300,-0.430710435,10.064547539,0.009561838,-0.046748962,0.005944239,0.125000000,-1.000000000,-3.062500000,-92.433929443,151.101959229,-0.371391565,1032.478271484,6.210746288,0.000000000,31.929998398,32.680000305,32.599998474,32.989997864,
66940,168.501629000,168.501526000,152.011841000,-0.072808340,-0.428321600,10.064547539,0.157576308,0.015072787,0.007797835,0.125000000,-1.000000000,-3.000000000,-92.433715820,151.101852417,-0.372079730,1032.478271484,6.210429668,0.000000000,31.929998398,32.680000305,32.599998474,32.989997864,
66942,168.506664000,168.501526000,152.011841000,-0.075193703,-0.417187572,10.061267853,0.091921218,0.014281552,0.007262199,0.125000000,-1.000000000,-3.000000000,-92.433326721,151.101867676,-0.372514307,1032.478271484,6.210113049,0.000000000,31.929998398,32.680000305,32.590000153,32.989997864,
66944,168.511699000,168.501526000,152.011841000,-0.072770774,-0.412398160,10.056504250,-0.144715279,0.043913528,-0.057435393,0.125000000,-1.000000000,-3.000000000,-92.433792114,151.101608276,-0.373328835,1032.478271484,6.209797382,0.000000000,31.929998398,32.680000305,32.590000153,32.989997864,
66946,168.516734000,168.521666000,152.011841000,-0.072626166,-0.409811378,10.054735184,0.128590271,-0.044293724,0.099061042,0.125000000,-1.000000000,-3.000000000,-92.426750183,151.101974487,-0.377751470,1032.478271484,6.209481716,0.000000000,31.929998398,32.680000305,32.649997711,32.989997864,
66948,168.521769000,168.521666000,152.011841000,-0.070185632,-0.409804285,10.047589302,0.039982222,0.169506460,0.005255617,0.062500000,-1.000000000,-3.000000000,-92.424354553,151.102096558,-0.376031935,1032.478271484,6.209166050,0.000000000,31.929998398,32.680000305,32.649997711,32.989997864,
66950,168.526804000,168.521666000,152.011841000,-0.065557241,-0.421132356,10.052636147,0.097090177,0.044964097,0.099987097,0.062500000,-1.000000000,-3.000000000,-92.423820496,151.102279663,-0.375774086,1032.478271484,6.208849907,0.000000000,31.929998398,32.680000305,32.599998474,32.989997864,
66952,168.531839000,168.521666000,152.011841000,-0.063240044,-0.425924927,10.062164307,0.067710124,-0.077441648,0.099453345,0.062500000,-1.000000000,-3.000000000,-92.423599243,151.102539062,-0.375285745,1032.478271484,6.208533287,0.000000000,31.929998398,32.680000305,32.599998474,32.989997864,
66954,168.536874000,168.541806000,152.011841000,-0.070387751,-0.432274401,10.063060760,-0.014069016,-0.107580684,0.005201176,0.062500000,-1.000000000,-3.000000000,-92.424415588,151.102752686,-0.375767261,1032.478271484,6.208216667,0.000000000,31.929998398,32.680000305,32.610000610,32.989997864,
66955,168.539391000,168.541806000,152.011841000,-0.070387751,-0.432274401,10.063060760,0.016024478,-0.046090864,-0.056316298,0.125000000,-1.000000000,-3.000000000,-92.427513123,151.102600098,-0.371992648,1032.478271484,6.208058357,0.000000000,31.929998398,32.680000305,32.610000610,32.989997864,
66957,168.544426000,168.541806000,152.011841000,-0.067964837,-0.432269484,10.058296204,0.073955685,0.014964091,0.068356134,0.125000000,-1.000000000,-3.000000000,-92.427772522,151.102676392,-0.372860968,1032.478271484,6.207741737,0.000000000,31.929998398,32.680000305,32.610000610,32.989997864,
66959,168.549461000,168.541806000,152.011841000,-0.060647909,-0.418633848,10.043414116,0.205237478,-0.014035879,0.038294431,0.125000000,-1.000000000,-3.000000000,-92.426673889,151.103179932,-0.372635543,1032.478271484,6.207425117,0.000000000,31.929998398,32.680000305,32.630001068,32.989997864,
66961,168.554496000,168.541806000,152.011841000,-0.065476105,-0.413857073,10.050559044,0.056893341,0.107674785,0.005780315,0.125000000,-1.000000000,-3.000000000,-92.425926208,151.102691650,-0.372102797,1032.478271484,6.207108498,0.000000000,31.929998398,32.680000305,32.630001068,32.989997864,
66963,168.559531000,168.561946000,152.011841000,-0.075033791,-0.413771808,10.060396194,0.016780814,0.017136678,-0.026525574,0.125000000,-1.000000000,-2.937500000,-92.425895691,151.102615356,-0.372556984,1032.478271484,6.206791878,0.000000000,31.929998398,32.680000305,32.659999847,32.989997864,
66965,168.564566000,168.561946000,152.011841000,-0.067853168,-0.413767934,10.058012962,0.135227829,-0.074130923,0.005736399,0.125000000,-1.000000000,-2.937500000,-92.417648315,151.102844238,-0.374820411,1032.478271484,6.206475258,0.000000000,31.929998398,32.680000305,32.659999847,32.989997864,
66967,168.569601000,168.561946000,152.011841000,-0.060685482,-0.410635024,10.051456451,0.034828097,0.077772960,-0.149608940,0.125000000,-1.000000000,-2.937500000,-92.417427063,151.102325439,-0.374267995,1032.478271484,6.206158638,0.000000000,31.929998398,32.680000305,32.639999390,32.989997864,
66969,168.574636000,168.561946000,152.011841000,-0.055927739,-0.403459400,10.053838730,0.151953250,-0.105503395,0.037481103,0.125000000,-1.000000000,-2.937500000,-92.414573669,151.102478027,-0.373868406,1032.478271484,6.205842018,0.000000000,31.929998398,32.680000305,32.639999390,32.989997864,
66971,168.579671000,168.582086000,152.011841000,-0.055960659,-0.411466926,10.055324554,0.085921541,0.046636906,0.037054803,0.125000000,-1.000000000,-3.000000000,-92.413986206,151.102722168,-0.374060541,1032.478271484,6.205525398,0.000000000,31.929998398,32.680000305,32.630001068,32.989997864,
66973,168.584706000,168.582086000,152.011841000,-0.060665529,-0.425812691,10.045796394,0.174815282,0.138718367,0.007203809,0.125000000,-1.000000000,-3.000000000,-92.414314270,151.102767944,-0.372007161,1032.478271484,6.205208302,0.000000000,31.929998398,32.680000305,32.630001068,32.989997864,
66975,168.589741000,168.582086000,152.011841000,-0.063063852,-0.433079869,10.038344383,0.068606049,-0.046199027,-0.117410056,0.125000000,-1.000000000,-3.000000000,-92.414115906,151.102676392,-0.370903194,1032.478271484,6.204890728,0.000000000,31.929998398,32.680000305,32.599998474,32.989997864,
66977,168.594776000,168.582086000,152.011841000,-0.067839198,-0.440257668,10.038344383,0.156669065,0.045706131,-0.054235730,0.125000000,-1.000000000,-3.000000000,-92.414001465,151.102371216,-0.372446865,1032.478271484,6.204573154,0.000000000,31.929998398,32.680000305,32.599998474,32.989997864,
66979,168.599811000,168.602226000,152.011841000,-0.065375045,-0.431328803,10.042823792,0.127897963,0.169965416,-0.024764972,0.125000000,-1.000000000,-3.000000000,-92.416893005,151.102554321,-0.376765341,1032.478271484,6.204255581,0.000000000,31.929998398,32.680000305,32.649997711,32.989997864,
66981,168.604846000,168.602226000,152.011841000,-0.065463148,-0.419378579,10.054735184,0.156401947,-0.044386037,0.130236343,0.125000000,-1.000000000,-3.000000000,-92.420272827,151.102706909,-0.368130952,1032.478271484,6.203937054,0.000000000,31.929998398,32.680000305,32.649997711,32.989997864,
66982,168.607364000,168.602226000,152.011841000,-0.067918986,-0.415429860,10.060984612,0.120668635,0.108029045,0.068219811,0.125000000,-1.000000000,-3.000000000,-92.416557312,151.102890015,-0.371452212,1032.478271484,6.203777790,0.000000000,31.929998398,32.680000305,32.639999390,32.989997864,
66984,168.612399000,168.602226000,152.011841000,-0.070289038,-0.413036048,10.058602333,0.033390556,-0.014282352,-0.087878667,0.125000000,-1.000000000,-3.000000000,-92.416328430,151.102935791,-0.371453911,1032.478271484,6.203459263,0.000000000,31.929998398,32.680000305,32.639999390,32.989997864,
66986,168.617434000,168.622366000,152.011841000,-0.058363624,-0.414688647,10.054429054,-0.069859073,-0.016181145,0.097269416,0.125000000,-1.000000000,-3.000000000,-92.415679932,151.103073120,-0.369929880,1032.478271484,6.203140736,0.000000000,31.929998398,32.680000305,32.619998932,32.989997864,
66988,168.622469000,168.622366000,152.011841000,-0.048777703,-0.431427628,10.049663544,0.078567028,-0.168347359,0.129839212,0.187500000,-1.000000000,-3.000000000,-92.415390015,151.103210449,-0.367241293,1032.478271484,6.202822208,0.000000000,31.929998398,32.680000305,32.619998932,32.989997864,
66990,168.627504000,168.622366000,152.011841000,-0.053522453,-0.429771125,10.051456451,0.002277548,0.107607655,0.035723090,0.187500000,-1.000000000,-3.000000000,-92.415206909,151.103393555,-0.367606729,1032.478271484,6.202503681,0.000000000,31.929998398,32.680000305,32.639999390,32.989997864,
66992,168.632539000,168.622366000,152.011841000,-0.058280170,-0.415416718,10.049073219,0.004319881,-0.014243079,-0.150215372,0.187500000,-1.000000000,-3.000000000,-92.414299011,151.103012085,-0.367266059,1032.478271484,6.202184200,0.000000000,31.929998398,32.680000305,32.639999390,32.989997864,
66994,168.637574000,168.642506000,152.011841000,-0.065526657,-0.405121475,10.054429054,0.137703985,-0.045644395,0.099737428,0.187500000,-1.000000000,-3.000000000,-92.411346436,151.103012085,-0.368195832,1032.478271484,6.201864719,0.000000000,31.929998398,32.680000305,32.619998932,32.989997864,
66996,168.642609000,168.642506000,152.011841000,-0.065544270,-0.409908086,10.056810379,0.048616111,-0.015472993,0.098670825,0.000000000,-1.000000000,-3.000000000,-92.409057617,151.103195190,-0.369567037,1032.478271484,6.201545238,0.000000000,31.929998398,32.680000305,32.619998932,32.989997864,
66998,168.647644000,168.642506000,152.011841000,-0.068017706,-0.420314878,10.065442085,0.101840578,0.014980899,0.068485558,0.000000000,-1.000000000,-3.000000000,-92.408218384,151.103775024,-0.369990498,1032.478271484,6.201225758,0.000000000,31.929998398,32.680000305,32.610000610,32.989997864,
67000,168.652679000,168.642506000,152.011841000,-0.082396612,-0.417932570,10.072588921,-0.105728872,0.013956478,0.065942995,0.000000000,-1.000000000,-3.000000000,-92.407333374,151.104080200,-0.370764881,1032.478271484,6.200906277,0.000000000,31.929998398,32.680000305,32.610000610,32.989997864,
67002,168.657714000,168.662646000,152.011841000,-0.091833279,-0.414613366,10.069027901,0.125464916,0.199941248,0.160731986,0.000000000,-1.000000000,-3.000000000,-92.406745911,151.104553223,-0.375840694,1032.478271484,6.200586796,0.000000000,31.929998398,32.680000305,32.649997711,32.989997864,
67004,168.662749000,168.662646000,152.011841000,-0.091798037,-0.431354582,10.064263344,0.216464922,0.139572993,-0.055131994,0.125000000,-0.937500000,-3.000000000,-92.407669067,151.104492188,-0.381092340,1032.478271484,6.200267792,0.000000000,31.929998398,32.680000305,32.649997711,32.989997864,
67006,168.667784000,168.662646000,152.011841000,-0.079771563,-0.443302035,10.052352905,0.038777012,0.016414545,-0.057381660,0.125000000,-0.937500000,-3.000000000,-92.409614563,151.104492188,-0.383315623,1032.478271484,6.199949265,0.000000000,31.929998398,32.680000305,32.649997711,32.989997864,
67008,168.672819000,168.662646000,152.011841000,-0.072520450,-0.438504994,10.040442467,-0.139476523,-0.076305754,0.002396769,0.125000000,-0.937500000,-3.000000000,-92.410636902,151.104339600,-0.381563663,1032.478271484,6.199630737,0.000000000,31.929998398,32.680000305,32.649997711,32.989997864,
67010,168.677854000,168.682786000,152.011841000,-0.074903473,-0.430589676,10.033885002,-0.003220007,-0.015246050,-0.057336599,0.125000000,-0.937500000,-3.000000000,-92.411560059,151.104095459,-0.380646676,1032.478271484,6.199312210,0.000000000,31.929998398,32.680000305,32.630001068,32.989997864,
67012,168.682889000,168.682786000,152.011841000,-0.077344000,-0.432988971,10.041031837,0.025943194,0.045929607,-0.025960842,0.125000000,-1.000000000,-3.000000000,-92.416847229,151.104141235,-0.388997644,1032.478271484,6.198993206,0.000000000,31.929998398,32.680000305,32.630001068,32.989997864,
67014,168.687924000,168.682786000,152.011841000,-0.065548912,-0.432177037,10.063365936,-0.086441383,0.076352924,-0.027524529,0.125000000,-1.000000000,-3.000000000,-92.417701721,151.104156494,-0.388487935,1032.478271484,6.198673725,0.000000000,31.929998398,32.680000305,32.639999390,32.989997864,
67016,168.692959000,168.682786000,152.011841000,-0.058491610,-0.417835057,10.077658653,-0.027562695,0.015267714,0.034996357,0.125000000,-1.000000000,-3.000000000,-92.417961121,151.104553223,-0.388253123,1032.478271484,6.198354244,0.000000000,31.929998398,32.680000305,32.639999390,32.989997864,
67018,168.697994000,168.702926000,152.011841000,-0.058522198,-0.417100400,10.075866699,0.050270300,-0.076622821,-0.087564148,0.125000000,-1.000000000,-3.000000000,-92.411117554,151.104385376,-0.381614894,1032.478271484,6.198034763,0.000000000,31.929998398,32.680000305,32.619998932,32.989997864,
67020,168.703029000,168.702926000,152.011841000,-0.051271088,-0.424264491,10.063956261,0.049242035,-0.168631107,0.036229245,0.125000000,-0.937500000,-3.000000000,-92.412734985,151.104583740,-0.378609538,1032.478271484,6.197715282,0.000000000,31.929998398,32.680000305,32.619998932,32.989997864,
67021,168.705546000,168.702926000,152.011841000,-0.044037588,-0.424254119,10.054429054,0.020244148,-0.076736107,-0.056944236,0.125000000,-0.937500000,-3.000000000,-92.416152954,151.104446411,-0.381409138,1032.478271484,6.197556019,0.000000000,31.929998398,32.680000305,32.619998932,32.989997864,
67023,168.710581000,168.702926000,152.011841000,-0.053585954,-0.427475125,10.051149368,-0.075988844,0.136242479,0.004352912,0.125000000,-0.937500000,-3.000000000,-92.417984009,151.104431152,-0.378834933,1032.478271484,6.197237492,0.000000000,31.929998398,32.680000305,32.610000610,32.989997864,
67025,168.715616000,168.702926000,152.011841000,-0.063136637,-0.427477390,10.051149368,0.042198829,0.044769168,0.067628078,0.125000000,-0.937500000,-3.000000000,-92.418136597,151.104446411,-0.375576019,1032.478271484,6.196918964,0.000000000,31.929998398,32.680000305,32.610000610,32.989997864,
67027,168.720651000,168.723066000,152.011841000,-0.072667383,-0.421127528,10.045489311,0.035946220,0.136067674,0.036896307,0.062500000,-0.937500000,-3.000000000,-92.417762756,151.104537964,-0.377762586,1032.478271484,6.196600437,0.000000000,31.929998398,32.680000305,32.599998474,32.989997864,
67029,168.725686000,168.723066000,152.011841000,-0.079848036,-0.416346997,10.047872543,0.008227924,0.044601507,-0.149446189,0.062500000,-0.937500000,-3.000000000,-92.416183472,151.104568481,-0.382074207,1032.478271484,6.196281433,0.000000000,31.929998398,32.680000305,32.599998474,32.989997864,
67031,168.730721000,168.723066000,152.011841000,-0.082227387,-0.413038880,10.058602333,0.090832554,0.015622297,0.036448453,0.062500000,-0.937500000,-3.000000000,-92.410598755,151.104385376,-0.384325683,1032.478271484,6.195961952,0.000000000,31.929998398,32.680000305,32.639999390,32.989997864,
67033,168.735756000,168.723066000,152.011841000,-0.079927824,-0.420225859,10.070513725,0.002227922,-0.168178201,0.035146393,0.062500000,-0.937500000,-3.000000000,-92.410850525,151.104644775,-0.384132713,1032.478271484,6.195642471,0.000000000,31.929998398,32.680000305,32.639999390,32.989997864,
67035,168.740791000,168.743206000,152.011841000,-0.082297869,-0.439362019,10.068131447,0.061549291,0.046308950,-0.025830762,0.125000000,-1.000000000,-3.000000000,-92.411315918,151.104370117,-0.386980116,1032.478271484,6.195322990,0.000000000,31.929998398,32.680000305,32.639999390,32.989997864,
67037,168.745826000,168.743206000,152.011841000,-0.082315497,-0.448933095,10.070513725,0.031248864,-0.076420322,0.066629589,0.125000000,-1.000000000,-3.000000000,-92.419021606,151.104324341,-0.388025165,1032.478271484,6.195003510,0.000000000,31.929998398,32.680000305,32.639999390,32.989997864,
67039,168.750861000,168.743206000,152.011841000,-0.072810657,-0.439455986,10.067824364,0.043233071,0.075630099,-0.087238535,0.125000000,-1.000000000,-3.000000000,-92.418754578,151.104354858,-0.388489634,1032.478271484,6.194684982,0.000000000,31.929998398,32.680000305,32.610000610,32.989997864,
67041,168.755896000,168.743206000,152.011841000,-0.072722562,-0.420307308,10.055914879,0.042242158,-0.016473670,0.036652263,0.125000000,-1.000000000,-3.000000000,-92.418640137,151.104064941,-0.388983965,1032.478271484,6.194366455,0.000000000,31.929998398,32.680000305,32.610000610,32.989997864,
67043,168.760931000,168.763346000,152.011841000,-0.082159258,-0.405027032,10.052352905,0.156086043,0.108149000,0.006153360,0.062500000,-1.062500000,-3.000000000,-92.417785645,151.103988647,-0.391253352,1032.478271484,6.194047928,0.000000000,31.929998398,32.680000305,32.649997711,32.989997864,
67045,168.765966000,168.763346000,152.011841000,-0.077419139,-0.409814656,10.057116508,0.126465648,0.016180398,0.005634413,0.062500000,-1.062500000,-3.000000000,-92.416893005,151.104324341,-0.391387403,1032.478271484,6.193729401,0.000000000,31.929998398,32.680000305,32.649997711,32.989997864,
67046,168.768484000,168.763346000,152.011841000,-0.077500254,-0.417089701,10.059192657,0.048389114,0.014490033,0.005460056,0.062500000,-1.062500000,-3.000000000,-92.413253784,151.104370117,-0.394363731,1032.478271484,6.193570137,0.000000000,31.929998398,32.680000305,32.619998932,32.989997864,
67048,168.773519000,168.763346000,152.011841000,-0.067896709,-0.433826476,10.052044868,0.047958601,0.044977542,0.036434576,0.062500000,-1.062500000,-3.000000000,-92.413444519,151.104537964,-0.395472795,1032.478271484,6.193251610,0.000000000,31.929998398,32.680000305,32.619998932,32.989997864,
67050,168.778554000,168.783486000,152.011841000,-0.060683150,-0.442560405,10.048177719,0.173489794,0.076725386,-0.055169746,0.062500000,-1.062500000,-3.000000000,-92.420249939,151.104110718,-0.392079830,1032.478271484,6.192933083,0.000000000,31.929998398,32.680000305,32.630001068,32.989997864,
67052,168.783589000,168.783486000,152.011841000,-0.060736004,-0.437782526,10.055324554,-0.063463345,-0.046673778,-0.058109514,0.125000000,-1.000000000,-3.000000000,-92.420280457,151.104064941,-0.391681939,1032.478271484,6.192614555,0.000000000,31.929998398,32.680000305,32.630001068,32.989997864,
67054,168.788624000,168.783486000,152.011841000,-0.063191839,-0.429049581,10.061574936,0.107047424,-0.077144802,0.068044290,0.125000000,-1.000000000,-3.000000000,-92.419960022,151.104263306,-0.391234577,1032.478271484,6.192296028,0.000000000,31.929998398,32.680000305,32.619998932,32.989997864,
67056,168.793659000,168.783486000,152.011841000,-0.058363624,-0.429042011,10.054429054,0.018597431,0.044955559,-0.025823904,0.125000000,-1.000000000,-3.000000000,-92.419487000,151.104187012,-0.389895827,1032.478271484,6.191977501,0.000000000,31.929998398,32.680000305,32.619998932,32.989997864,
67058,168.798694000,168.803626000,152.011841000,-0.055824362,-0.419365406,10.042823792,0.095562778,-0.137152791,0.128980234,0.125000000,-1.000000000,-3.000000000,-92.419281006,151.104644775,-0.387644380,1032.478271484,6.191658974,0.000000000,31.929998398,32.680000305,32.649997711,32.989997864,
67060,168.803729000,168.803626000,152.011841000,-0.055841990,-0.407406479,10.045207977,0.185676128,0.077745855,-0.055634879,0.125000000,-0.937500000,-3.000000000,-92.418739319,151.104660034,-0.386731654,1032.478271484,6.191340446,0.000000000,31.929998398,32.680000305,32.649997711,32.989997864,
67062,168.808764000,168.803626000,152.011841000,-0.063040234,-0.414589167,10.049970627,0.066667661,-0.045330953,0.004768192,0.125000000,-0.937500000,-3.000000000,-92.418441772,151.104751587,-0.386524200,1032.478271484,6.191020966,0.000000000,31.929998398,32.680000305,32.649997711,32.989997864,
67064,168.813799000,168.803626000,152.011841000,-0.070238493,-0.426556349,10.054735184,0.096080273,0.015908631,0.005162569,0.125000000,-0.937500000,-3.000000000,-92.418067932,151.104827881,-0.386337221,1032.478271484,6.190701485,0.000000000,31.929998398,32.680000305,32.649997711,32.989997864,
67066,168.818834000,168.823766000,152.011841000,-0.072810657,-0.439455986,10.067824364,0.011804274,0.013725106,0.005229711,0.125000000,-0.937500000,-3.000000000,-92.418235779,151.104568481,-0.386318445,1032.478271484,6.190382004,0.000000000,31.929998398,32.680000305,32.610000610,32.989997864,
67068,168.823869000,168.823766000,152.011841000,-0.075215966,-0.439458728,10.070207596,-0.047052640,-0.047649696,-0.026558591,0.125000000,-1.000000000,-3.062500000,-92.418281555,151.104705811,-0.386509687,1032.478271484,6.190062523,0.000000000,31.929998398,32.680000305,32.610000610,32.989997864,
67070,168.828904000,168.823766000,152.011841000,-0.072795384,-0.421881735,10.068720818,-0.159105629,0.013568011,-0.059071280,0.125000000,-1.000000000,-3.062500000,-92.418960571,151.104736328,-0.387594849,1032.478271484,6.189743042,0.000000000,31.929998398,32.680000305,32.619998932,32.989997864,
67072,168.833939000,168.823766000,152.011841000,-0.067984805,-0.417091787,10.063956261,0.078206308,0.075866491,-0.087105587,0.125000000,-1.000000000,-3.062500000,-92.418563843,151.104446411,-0.387892812,1032.478271484,6.189423561,0.000000000,31.929998398,32.680000305,32.619998932,32.989997864,
67074,168.838974000,168.843906000,152.011841000,-0.072722562,-0.432268441,10.055914879,0.100085855,0.075052410,0.068327345,0.125000000,-1.000000000,-3.062500000,-92.418251038,151.104446411,-0.388288975,1032.478271484,6.189105034,0.000000000,31.929998398,32.680000305,32.610000610,32.989997864,
67075,168.841491000,168.843906000,152.011841000,-0.075075008,-0.439441323,10.051149368,0.011256793,0.013466786,0.067169733,0.125000000,-1.000000000,-3.000000000,-92.422203064,151.104583740,-0.388966054,1032.478271484,6.188945770,0.000000000,31.929998398,32.680000305,32.610000610,32.989997864,
67077,168.846526000,168.843906000,152.011841000,-0.070264421,-0.449004740,10.046385765,0.100487560,0.013880919,0.037274465,0.125000000,-1.000000000,-3.000000000,-92.422126770,151.104446411,-0.388292372,1032.478271484,6.188627243,0.000000000,31.929998398,32.680000305,32.610000610,32.989997864,
67079,168.851561000,168.843906000,152.011841000,-0.060716074,-0.448175967,10.049663544,0.045741457,0.197190493,0.160449699,0.125000000,-1.000000000,-3.000000000,-92.429786682,151.104660034,-0.388960928,1032.478271484,6.188308716,0.000000000,31.929998398,32.680000305,32.619998932,32.989997864,
67081,168.856596000,168.843906000,152.011841000,-0.063086122,-0.436213255,10.047282219,0.048117615,0.044775199,-0.056550991,0.125000000,-1.000000000,-3.000000000,-92.429504395,151.104492188,-0.387957692,1032.478271484,6.187989235,0.000000000,31.929998398,32.680000305,32.619998932,32.989997864,
67083,168.861631000,168.864046000,152.011841000,-0.072568640,-0.418634504,10.041031837,0.083772808,0.014718631,-0.025366256,0.125000000,-0.937500000,-3.062500000,-92.429519653,151.104217529,-0.389094114,1032.478271484,6.187669754,0.000000000,31.929998398,32.680000305,32.630001068,32.989997864,
67085,168.866666000,168.864046000,152.011841000,-0.077291146,-0.411452442,10.033885002,0.113231942,0.167757824,-0.055795267,0.125000000,-0.937500000,-3.062500000,-92.428947449,151.103988647,-0.390081942,1032.478271484,6.187350273,0.000000000,31.929998398,32.680000305,32.630001068,32.989997864,
67087,168.871701000,168.864046000,152.011841000,-0.082162902,-0.412380844,10.035065651,-0.029318053,-0.018053258,-0.118505828,0.125000000,-0.937500000,-3.062500000,-92.429275513,151.103302002,-0.390887946,1032.478271484,6.187030315,0.000000000,31.929998398,32.680000305,32.590000153,32.989997864,
67089,168.876736000,168.864046000,152.011841000,-0.084603429,-0.409995764,10.042211533,-0.002292169,0.103744067,0.129656896,0.125000000,-0.937500000,-3.062500000,-92.425163269,151.104156494,-0.399500132,1032.478271484,6.186709881,0.000000000,31.929998398,32.680000305,32.590000153,32.989997864,
67091,168.881771000,168.884186000,152.011841000,-0.077480301,-0.410737365,10.053530693,0.071344316,-0.322773725,0.036567580,0.125000000,-1.000000000,-3.062500000,-92.421653748,151.104461670,-0.397614121,1032.478271484,6.186388969,0.000000000,31.929998398,32.680000305,32.610000610,32.989997864,
67093,168.886806000,168.884186000,152.011841000,-0.070370138,-0.417918861,10.060678482,0.040898960,0.105290622,0.005618044,0.125000000,-1.000000000,-3.062500000,-92.421096802,151.104751587,-0.397727668,1032.478271484,6.186067581,0.000000000,31.929998398,32.680000305,32.610000610,32.989997864,
67095,168.891841000,168.884186000,152.011841000,-0.077535488,-0.426662952,10.063956261,0.138026819,-0.015613172,-0.179392189,0.125000000,-1.000000000,-3.062500000,-92.421089172,151.104171753,-0.397747308,1032.478271484,6.185746193,0.000000000,31.929998398,32.680000305,32.619998932,32.989997864,
67097,168.896876000,168.884186000,152.011841000,-0.079958402,-0.431452334,10.068720818,-0.011332031,0.075145744,-0.088059485,0.125000000,-1.000000000,-3.062500000,-92.421257019,151.103866577,-0.398975909,1032.478271484,6.185424805,0.000000000,31.929998398,32.680000305,32.619998932,32.989997864,
67099,168.901911000,168.904326000,152.011841000,-0.072676703,-0.424997717,10.058602333,0.118676886,0.106927469,0.005901270,0.062500000,-1.000000000,-3.000000000,-92.420570374,151.104187012,-0.399629056,1032.478271484,6.185103416,0.000000000,31.929998398,32.680000305,32.639999390,32.989997864,
67100,168.904429000,168.904326000,152.011841000,-0.070200942,-0.417809606,10.046693802,0.030122202,-0.076944642,0.004650652,0.062500000,-1.000000000,-3.000000000,-92.424324036,151.104187012,-0.397649139,1032.478271484,6.184942722,0.000000000,31.929998398,32.680000305,32.639999390,32.989997864,
67102,168.909464000,168.904326000,152.011841000,-0.065489076,-0.408335835,10.046385765,0.129745528,-0.016556112,0.006719746,0.062500000,-1.000000000,-3.000000000,-92.415832520,151.104003906,-0.398806036,1032.478271484,6.184621334,0.000000000,31.929998398,32.680000305,32.610000610,32.989997864,
67104,168.914499000,168.904326000,152.011841000,-0.058378916,-0.417909473,10.053530693,0.071405359,-0.200024098,-0.056095462,0.062500000,-1.000000000,-3.000000000,-92.415611267,151.103805542,-0.396852523,1032.478271484,6.184299946,0.000000000,31.929998398,32.680000305,32.610000610,32.989997864,
67106,168.919534000,168.924466000,152.011841000,-0.048769381,-0.423334479,10.060396194,0.130963430,0.077581502,0.005589963,0.062500000,-1.000000000,-3.000000000,-92.415504456,151.103912354,-0.393547505,1032.478271484,6.183978558,0.000000000,31.929998398,32.680000305,32.659999847,32.989997864,
67108,168.924569000,168.924466000,152.011841000,-0.044029281,-0.423337698,10.065158844,0.100732379,0.046698909,0.067179650,0.125000000,-1.000000000,-3.000000000,-92.415252686,151.103866577,-0.388038814,1032.478271484,6.183657169,0.000000000,31.929998398,32.680000305,32.659999847,32.989997864,
67110,168.929604000,168.924466000,152.011841000,-0.048799966,-0.420207620,10.058602333,0.060440879,-0.045612112,-0.118773498,0.125000000,-1.000000000,-3.000000000,-92.414901733,151.103729248,-0.384377748,1032.478271484,6.183335781,0.000000000,31.929998398,32.680000305,32.639999390,32.989997864,
67112,168.934639000,168.924466000,152.011841000,-0.058385886,-0.408253103,10.063365936,0.029851556,0.076358259,-0.056929946,0.125000000,-1.000000000,-3.000000000,-92.414680481,151.103210449,-0.384297490,1032.478271484,6.183014393,0.000000000,31.929998398,32.680000305,32.639999390,32.989997864,
67114,168.939674000,168.944606000,152.011841000,-0.058555108,-0.410754621,10.077353477,0.041133642,-0.138851658,-0.056171264,0.125000000,-1.000000000,-3.000000000,-92.414031982,151.102798462,-0.383696407,1032.478271484,6.182693005,0.000000000,31.929998398,32.680000305,32.610000610,32.989997864,
67116,168.944709000,168.944606000,152.011841000,-0.065718122,-0.410756290,10.077353477,0.129178837,-0.046737596,0.006906202,0.125000000,-1.000000000,-2.937500000,-92.407974243,151.103042603,-0.387037307,1032.478271484,6.182372093,0.000000000,31.929998398,32.680000305,32.610000610,32.989997864,
67117,168.947226000,168.944606000,152.011841000,-0.070493467,-0.413149655,10.077353477,-0.106823519,0.074861169,-0.150622159,0.125000000,-1.000000000,-2.937500000,-92.409332275,151.102645874,-0.381710500,1032.478271484,6.182211876,0.000000000,31.929998398,32.680000305,32.610000610,32.989997864,
67119,168.952261000,168.944606000,152.011841000,-0.075233586,-0.410754204,10.072588921,-0.078838311,0.043885302,0.035501923,0.125000000,-1.000000000,-2.937500000,-92.409004211,151.103073120,-0.380994171,1032.478271484,6.181891441,0.000000000,31.929998398,32.680000305,32.610000610,32.989997864,
67120,168.954779000,168.944606000,152.011841000,-0.077603638,-0.420321465,10.070207596,-0.076733120,0.166776568,-0.212113231,0.125000000,-1.000000000,-2.937500000,-92.406219482,151.102554321,-0.385253757,1032.478271484,6.181731701,0.000000000,31.929998398,32.680000305,32.610000610,32.989997864,
67122,168.959814000,168.964746000,152.011841000,-0.072558030,-0.437682569,10.048484802,0.160709336,-0.166753173,0.006034766,0.125000000,-1.000000000,-2.937500000,-92.406669617,151.102355957,-0.386228800,1032.478271484,6.181412220,0.000000000,31.929998398,32.680000305,32.659999847,32.989997864,
67124,168.964849000,168.964746000,152.011841000,-0.074910462,-0.454424381,10.043722153,0.071750283,-0.075255185,-0.025982147,0.062500000,-1.000000000,-3.000000000,-92.414375305,151.102676392,-0.385841995,1032.478271484,6.181092739,0.000000000,31.929998398,32.680000305,32.659999847,32.989997864,
67126,168.969884000,168.964746000,152.011841000,-0.084663272,-0.455366969,10.059192657,0.104519717,0.045168683,0.099450707,0.062500000,-1.000000000,-3.000000000,-92.421730042,151.102767944,-0.388741493,1032.478271484,6.180773258,0.000000000,31.929998398,32.680000305,32.619998932,32.989997864,
67128,168.974919000,168.964746000,152.011841000,-0.082293227,-0.431446403,10.061574936,0.104126342,0.167358845,0.099472240,0.062500000,-1.000000000,-3.000000000,-92.420898438,151.103271484,-0.390396982,1032.478271484,6.180453777,0.000000000,31.929998398,32.680000305,32.619998932,32.989997864,
67129,168.977436000,168.964746000,152.011841000,-0.075130194,-0.421875745,10.061574936,0.047112297,-0.199408844,-0.056489319,0.062500000,-1.000000000,-3.000000000,-92.424507141,151.103134155,-0.392076403,1032.478271484,6.180294037,0.000000000,31.929998398,32.680000305,32.619998932,32.989997864,
67131,168.982471000,168.984886000,152.011841000,-0.063042566,-0.411370248,10.053249359,0.041491050,-0.044817727,0.004641220,0.125000000,-1.000000000,-3.000000000,-92.424476624,151.102783203,-0.391423255,1032.478271484,6.179974556,0.000000000,31.929998398,32.680000305,32.659999847,32.989997864,
67133,168.987506000,168.984886000,152.011841000,-0.058302455,-0.406589001,10.058012962,0.042067990,0.047140792,-0.088117234,0.125000000,-1.000000000,-3.000000000,-92.416175842,151.102371216,-0.389390379,1032.478271484,6.179655075,0.000000000,31.929998398,32.680000305,32.659999847,32.989997864,
67135,168.992541000,168.984886000,152.011841000,-0.056127544,-0.405226231,10.066033363,0.026806785,0.043688346,0.037371155,0.125000000,-1.000000000,-3.000000000,-92.416053772,151.102554321,-0.389469773,1032.478271484,6.179335594,0.000000000,31.929998398,32.680000305,32.590000153,32.989997864,
67137,168.997576000,168.984886000,152.011841000,-0.060885265,-0.405225217,10.063650131,0.057282448,0.044005360,-0.055129912,0.125000000,-1.000000000,-3.000000000,-92.408065796,151.102157593,-0.389083862,1032.478271484,6.179016113,0.000000000,31.929998398,32.680000305,32.590000153,32.989997864,
67139,169.002611000,169.005026000,152.011841000,-0.070326589,-0.402644992,10.066645622,0.066237785,0.016406007,-0.180370554,0.125000000,-1.000000000,-3.062500000,-92.407142639,151.101501465,-0.387883425,1032.478271484,6.178696632,0.000000000,31.929998398,32.680000305,32.649997711,32.989997864,
67141,169.007646000,169.005026000,152.011841000,-0.067991778,-0.417004287,10.073791504,-0.024242584,0.046093799,-0.026495891,0.125000000,-1.000000000,-3.062500000,-92.407279968,151.101516724,-0.387951732,1032.478271484,6.178377628,0.000000000,31.929998398,32.680000305,32.649997711,32.989997864,
67143,169.012681000,169.005026000,152.011841000,-0.060778234,-0.432914883,10.069923401,0.039893534,0.015898546,0.128854617,0.125000000,-1.000000000,-3.062500000,-92.407218933,151.101776123,-0.387195259,1032.478271484,6.178059101,0.000000000,31.929998398,32.680000305,32.659999847,32.989997864,
67145,169.017716000,169.005026000,152.011841000,-0.058337696,-0.423338920,10.062777519,-0.048141629,0.015776189,0.034749202,0.125000000,-1.000000000,-3.062500000,-92.407249451,151.102249146,-0.386579692,1032.478271484,6.177740574,0.000000000,31.929998398,32.680000305,32.659999847,32.989997864,
67147,169.022751000,169.025166000,152.011841000,-0.058267213,-0.401800215,10.053249359,0.129645526,0.047086470,0.036910437,0.125000000,-1.000000000,-3.000000000,-92.403945923,151.102218628,-0.386075109,1032.478271484,6.177422523,0.000000000,31.929998398,32.680000305,32.659999847,32.989997864,
67149,169.027786000,169.025166000,152.011841000,-0.060584422,-0.401792109,10.043722153,0.040773347,0.107824676,0.004943229,0.125000000,-1.000000000,-3.000000000,-92.397399902,151.102203369,-0.386235625,1032.478271484,6.177104950,0.000000000,31.929998398,32.680000305,32.659999847,32.989997864,
67151,169.032821000,169.025166000,152.011841000,-0.067841507,-0.415508717,10.041622162,-0.021027165,0.013205797,0.129243031,0.125000000,-1.000000000,-3.000000000,-92.396591187,151.102493286,-0.384895176,1032.478271484,6.176787376,0.000000000,31.929998398,32.680000305,32.610000610,32.989997864,
67153,169.037856000,169.025166000,152.011841000,-0.077409819,-0.415513158,10.044003487,-0.078271300,-0.108836934,-0.057434980,0.125000000,-1.000000000,-3.000000000,-92.397109985,151.102325439,-0.385323763,1032.478271484,6.176468849,0.000000000,31.929998398,32.680000305,32.610000610,32.989997864,
67155,169.042891000,169.045306000,152.011841000,-0.079734005,-0.410633028,10.044309616,-0.001030291,0.015034741,0.004837255,0.125000000,-1.000000000,-3.000000000,-92.396209717,151.102233887,-0.386216849,1032.478271484,6.176150322,0.000000000,31.929998398,32.680000305,32.639999390,32.989997864,
67157,169.047926000,169.045306000,152.011841000,-0.074976280,-0.427379668,10.046693802,0.028738875,-0.045946255,0.005073577,0.125000000,-1.000000000,-3.000000000,-92.396598816,151.102523804,-0.386726528,1032.478271484,6.175831795,0.000000000,31.929998398,32.680000305,32.639999390,32.989997864,
67159,169.052961000,169.045306000,152.011841000,-0.063090764,-0.436952233,10.053838730,-0.000781096,0.015147759,-0.026171044,0.125000000,-1.000000000,-3.000000000,-92.398010254,151.102371216,-0.385412544,1032.478271484,6.175512314,0.000000000,31.929998398,32.680000305,32.639999390,32.989997864,
67160,169.055479000,169.045306000,152.011841000,-0.058350652,-0.434563220,10.058602333,0.029376537,0.046005752,-0.087703511,0.125000000,-1.000000000,-3.000000000,-92.401588440,151.102127075,-0.388049066,1032.478271484,6.175352573,0.000000000,31.929998398,32.680000305,32.639999390,32.989997864,
67162,169.060514000,169.065446000,152.011841000,-0.061006285,-0.432381630,10.077046394,0.051063243,-0.140116051,-0.024061128,0.125000000,-1.000000000,-3.000000000,-92.402351379,151.101699829,-0.386601031,1032.478271484,6.175033092,0.000000000,31.929998398,32.680000305,32.579998016,32.989997864,
67164,169.065549000,169.065446000,152.011841000,-0.063393958,-0.418028861,10.077046394,0.049490269,0.134799227,0.069158785,0.125000000,-1.000000000,-3.000000000,-92.402214050,151.101699829,-0.386819601,1032.478271484,6.174713612,0.000000000,31.929998398,32.680000305,32.579998016,32.989997864,
67166,169.070584000,169.065446000,152.011841000,-0.060738336,-0.410641551,10.058602333,-0.119212843,-0.138368502,0.003415588,0.125000000,-1.000000000,-3.000000000,-92.399787903,151.101547241,-0.388903707,1032.478271484,6.174394608,0.000000000,31.929998398,32.680000305,32.639999390,32.989997864,
67168,169.075619000,169.065446000,152.011841000,-0.053540066,-0.427381068,10.053838730,0.059699908,0.046326827,-0.149173930,0.125000000,-1.000000000,-3.000000000,-92.401870728,151.101470947,-0.379179031,1032.478271484,6.174076080,0.000000000,31.929998398,32.680000305,32.639999390,32.989997864,
67170,169.080654000,169.085586000,152.011841000,-0.055892497,-0.439338386,10.049073219,0.116785139,0.045988463,0.068379387,0.125000000,-1.000000000,-3.000000000,-92.401664734,151.101577759,-0.380531430,1032.478271484,6.173757553,0.000000000,31.929998398,32.680000305,32.639999390,32.989997864,
67172,169.085689000,169.085586000,152.011841000,-0.072553366,-0.432159185,10.041928291,0.027815092,0.015009128,0.067201234,0.125000000,-1.062500000,-3.062500000,-92.402099609,151.102020264,-0.382430255,1032.478271484,6.173439026,0.000000000,31.929998398,32.680000305,32.639999390,32.989997864,
67174,169.090724000,169.085586000,152.011841000,-0.082053542,-0.421759516,10.038060188,0.182245567,0.107915178,0.037894558,0.125000000,-1.062500000,-3.062500000,-92.402809143,151.102005005,-0.385053128,1032.478271484,6.173120499,0.000000000,31.929998398,32.680000305,32.649997711,32.989997864,
67176,169.095759000,169.085586000,152.011841000,-0.077366278,-0.416984856,10.049970627,0.034545816,0.076741822,-0.025871636,0.125000000,-1.062500000,-3.062500000,-92.402732849,151.102020264,-0.385697722,1032.478271484,6.172801971,0.000000000,31.929998398,32.680000305,32.649997711,32.989997864,
67178,169.100794000,169.105726000,152.011841000,-0.065551244,-0.421781600,10.066645622,0.153472438,0.016140325,-0.055461109,0.125000000,-1.062500000,-3.062500000,-92.402328491,151.101776123,-0.386067390,1032.478271484,6.172482491,0.000000000,31.929998398,32.680000305,32.649997711,32.989997864,
67180,169.105829000,169.105726000,152.011841000,-0.063128330,-0.421776712,10.061882019,0.033935260,0.015332921,0.036065321,0.125000000,-0.937500000,-3.062500000,-92.402214050,151.101821899,-0.386149377,1032.478271484,6.172163010,0.000000000,31.929998398,32.680000305,32.649997711,32.989997864,
67182,169.110864000,169.105726000,152.011841000,-0.072522797,-0.411363840,10.043722153,-0.107671529,0.076347105,-0.027767947,0.125000000,-0.937500000,-3.062500000,-92.401298523,151.101791382,-0.386449903,1032.478271484,6.171844006,0.000000000,31.929998398,32.680000305,32.659999847,32.989997864,
67184,169.115899000,169.105726000,152.011841000,-0.070082255,-0.411356688,10.036574364,0.218358904,-0.136275530,0.037805736,0.125000000,-0.937500000,-3.062500000,-92.399101257,151.102035522,-0.386199772,1032.478271484,6.171525478,0.000000000,31.929998398,32.680000305,32.659999847,32.989997864,
67186,169.120934000,169.125866000,152.011841000,-0.070246793,-0.420295894,10.044003487,0.156613365,0.044612236,0.069442444,0.125000000,-0.937500000,-3.062500000,-92.398895264,151.102386475,-0.386513948,1032.478271484,6.171205997,0.000000000,31.929998398,32.680000305,32.610000610,32.989997864,
67188,169.125969000,169.125866000,152.011841000,-0.072687320,-0.427479655,10.051149368,0.038001679,-0.017086785,0.067943215,0.125000000,-1.000000000,-3.000000000,-92.399925232,151.102478027,-0.386794001,1032.478271484,6.170886517,0.000000000,31.929998398,32.680000305,32.610000610,32.989997864,
67190,169.131004000,169.125866000,152.011841000,-0.058401193,-0.435396254,10.062470436,-0.096824013,-0.016495120,-0.027063465,0.125000000,-1.000000000,-3.000000000,-92.402038574,151.102203369,-0.386562616,1032.478271484,6.170566559,0.000000000,31.929998398,32.680000305,32.630001068,32.989997864,
67192,169.136039000,169.125866000,152.011841000,-0.046498057,-0.440182209,10.067234993,-0.155967578,0.074966185,-0.058628984,0.125000000,-1.000000000,-3.000000000,-92.407073975,151.102050781,-0.378157020,1032.478271484,6.170246124,0.000000000,31.929998398,32.680000305,32.630001068,32.989997864,
67193,169.138556000,169.125866000,152.011841000,-0.051255800,-0.442573398,10.064851761,0.139763385,-0.107427187,0.068604261,0.125000000,-1.000000000,-3.000000000,-92.404518127,151.102233887,-0.382615536,1032.478271484,6.170085907,0.000000000,31.929998398,32.680000305,32.630001068,32.989997864,
67195,169.143591000,169.146006000,152.011841000,-0.065443195,-0.432164013,10.049073219,0.204442725,0.199070990,0.069309890,0.125000000,-1.000000000,-2.937500000,-92.410522461,151.102828979,-0.377433866,1032.478271484,6.169766426,0.000000000,31.929998398,32.680000305,32.639999390,32.989997864,
67197,169.148626000,169.146006000,152.011841000,-0.065372720,-0.422586441,10.039546013,-0.000323474,-0.137678787,-0.150286421,0.125000000,-1.000000000,-2.937500000,-92.410438538,151.102386475,-0.377054781,1032.478271484,6.169446945,0.000000000,31.929998398,32.680000305,32.639999390,32.989997864,
67199,169.153661000,169.146006000,152.011841000,-0.065370388,-0.423412919,10.036266327,0.108808115,0.197981790,0.099430718,0.125000000,-1.000000000,-2.937500000,-92.409812927,151.102706909,-0.377681464,1032.478271484,6.169127464,0.000000000,31.929998398,32.680000305,32.630001068,32.989997864,
67201,169.158696000,169.146006000,152.011841000,-0.065388016,-0.423415065,10.038650513,0.110142030,0.106458694,-0.024514442,0.125000000,-1.000000000,-2.937500000,-92.409530640,151.102325439,-0.377889782,1032.478271484,6.168807030,0.000000000,31.929998398,32.680000305,32.630001068,32.989997864,
67203,169.163731000,169.166146000,152.011841000,-0.060619656,-0.420934200,10.048484802,0.217627868,-0.014232834,0.006891301,0.125000000,-1.000000000,-3.000000000,-92.409217834,151.102188110,-0.377710491,1032.478271484,6.168486595,0.000000000,31.929998398,32.680000305,32.659999847,32.989997864,
67205,169.168766000,169.166146000,152.011841000,-0.063130662,-0.418557793,10.065158844,0.187814087,-0.044874344,0.006515720,0.125000000,-1.000000000,-3.000000000,-92.408477783,151.102142334,-0.377158940,1032.478271484,6.168165207,0.000000000,31.929998398,32.680000305,32.659999847,32.989997864,
67207,169.173801000,169.166146000,152.011841000,-0.070410036,-0.418662190,10.071999550,0.168485507,-0.015827736,0.038006760,0.125000000,-1.000000000,-3.000000000,-92.407844543,151.102432251,-0.377479970,1032.478271484,6.167843819,0.000000000,31.929998398,32.680000305,32.630001068,32.989997864,
67209,169.178836000,169.166146000,152.011841000,-0.077502578,-0.421047449,10.062470436,0.049970411,-0.077446446,0.036493126,0.125000000,-1.000000000,-3.000000000,-92.408004761,151.102615356,-0.377661824,1032.478271484,6.167522430,0.000000000,31.929998398,32.680000305,32.630001068,32.989997864,
67211,169.183871000,169.186286000,152.011841000,-0.077399194,-0.422600091,10.051456451,0.115985580,0.045857143,-0.055739228,0.062500000,-1.000000000,-3.000000000,-92.407920837,151.102340698,-0.377753198,1032.478271484,6.167201996,0.000000000,31.929998398,32.680000305,32.639999390,32.989997864,
67213,169.188906000,169.186286000,152.011841000,-0.075046755,-0.417819440,10.056221008,-0.002164423,-0.076961078,-0.088200718,0.062500000,-1.000000000,-3.000000000,-92.407867432,151.102050781,-0.377842844,1032.478271484,6.166881561,0.000000000,31.929998398,32.680000305,32.639999390,32.989997864,
67215,169.193941000,169.186286000,152.011841000,-0.072711937,-0.408256501,10.063365936,0.144959673,0.015234310,0.006598363,0.062500000,-1.000000000,-3.000000000,-92.403366089,151.102096558,-0.378471226,1032.478271484,6.166561127,0.000000000,31.929998398,32.680000305,32.639999390,32.989997864,
67217,169.198976000,169.186286000,152.011841000,-0.065531299,-0.408252627,10.060984612,-0.002594191,-0.168759197,-0.026342653,0.062500000,-1.000000000,-3.000000000,-92.401504517,151.102157593,-0.379403561,1032.478271484,6.166240692,0.000000000,31.929998398,32.680000305,32.639999390,32.989997864,
67218,169.201494000,169.206426000,152.011841000,-0.067969501,-0.411478460,10.064851761,0.078627430,-0.046780925,0.098895133,0.062500000,-1.000000000,-3.000000000,-92.402320862,151.102416992,-0.384829402,1032.478271484,6.166080475,0.000000000,31.929998398,32.680000305,32.630001068,32.989997864,
67220,169.206529000,169.206426000,152.011841000,-0.077502578,-0.413870782,10.062470436,0.108316660,-0.077146187,0.099211209,0.125000000,-1.000000000,-3.000000000,-92.400543213,151.102478027,-0.385193139,1032.478271484,6.165760040,0.000000000,31.929998398,32.680000305,32.630001068,32.989997864,
67222,169.211564000,169.206426000,152.011841000,-0.067868441,-0.400243491,10.057116508,0.150542393,-0.014774446,0.068202265,0.125000000,-1.000000000,-3.000000000,-92.396308899,151.102874756,-0.385538071,1032.478271484,6.165439606,0.000000000,31.929998398,32.680000305,32.649997711,32.989997864,
67224,169.216599000,169.206426000,152.011841000,-0.043956459,-0.397841305,10.052352905,-0.055453666,-0.076531522,-0.089196712,0.125000000,-1.000000000,-3.000000000,-92.390380859,151.102737427,-0.377846241,1032.478271484,6.165119171,0.000000000,31.929998398,32.680000305,32.649997711,32.989997864,
67226,169.221634000,169.226566000,152.011841000,-0.036839332,-0.421855897,10.049663544,-0.016638555,0.074849911,0.067072555,0.125000000,-1.000000000,-3.000000000,-92.388175964,151.102920532,-0.375326723,1032.478271484,6.164798737,0.000000000,31.929998398,32.680000305,32.619998932,32.989997864,
67228,169.226669000,169.226566000,152.011841000,-0.046337150,-0.436204940,10.042517662,0.013841699,-0.138933972,0.036154300,0.125000000,-1.000000000,-3.000000000,-92.393806458,151.103225708,-0.366589010,1032.478271484,6.164478302,0.000000000,31.929998398,32.680000305,32.619998932,32.989997864,
67230,169.231704000,169.226566000,152.011841000,-0.053399108,-0.432148159,10.034780502,0.086562939,0.076782584,-0.118026897,0.125000000,-1.000000000,-3.000000000,-92.394416809,151.102478027,-0.365182817,1032.478271484,6.164157867,0.000000000,31.929998398,32.680000305,32.639999390,32.989997864,
67232,169.236739000,169.226566000,152.011841000,-0.067795649,-0.422591299,10.044309616,0.055276722,0.014979192,0.067392170,0.125000000,-1.000000000,-3.000000000,-92.394294739,151.102737427,-0.365424424,1032.478271484,6.163837433,0.000000000,31.929998398,32.680000305,32.639999390,32.989997864,
67234,169.241774000,169.246706000,152.011841000,-0.072542727,-0.415323913,10.049380302,0.075028345,0.077795960,-0.056978308,0.125000000,-1.000000000,-3.000000000,-92.393890381,151.102600098,-0.366657317,1032.478271484,6.163516045,0.000000000,31.929998398,32.680000305,32.669998169,32.989997864,
67236,169.246809000,169.246706000,152.011841000,-0.070225529,-0.424900949,10.058910370,0.014241692,0.046485893,0.097153775,0.125000000,-1.000000000,-3.000000000,-92.393669128,151.102737427,-0.366503626,1032.478271484,6.163194656,0.000000000,31.929998398,32.680000305,32.669998169,32.989997864,
67238,169.251844000,169.246706000,152.011841000,-0.072795384,-0.438627303,10.068720818,0.014434217,0.014144521,-0.087478928,0.125000000,-1.000000000,-3.000000000,-92.401008606,151.102493286,-0.368895948,1032.478271484,6.162873268,0.000000000,31.929998398,32.680000305,32.619998932,32.989997864,
67240,169.256879000,169.246706000,152.011841000,-0.070354857,-0.429051310,10.061574936,0.279465675,0.106680192,0.070661306,0.125000000,-1.000000000,-3.000000000,-92.400161743,151.102676392,-0.369834244,1032.478271484,6.162551880,0.000000000,31.929998398,32.680000305,32.619998932,32.989997864,
67242,169.261914000,169.266846000,152.011841000,-0.077346332,-0.405848026,10.044309616,0.145774171,0.015762636,-0.148319840,0.125000000,-1.000000000,-3.000000000,-92.399398804,151.102172852,-0.371293366,1032.478271484,6.162230492,0.000000000,31.929998398,32.680000305,32.639999390,32.989997864,
67244,169.266949000,169.266846000,152.011841000,-0.089231826,-0.401059896,10.037163734,0.204649121,-0.014659560,-0.116557486,0.125000000,-0.937500000,-3.000000000,-92.392601013,151.101684570,-0.378335476,1032.478271484,6.161909103,0.000000000,31.929998398,32.680000305,32.639999390,32.989997864,
67246,169.271984000,169.266846000,152.011841000,-0.096480615,-0.418644518,10.045796394,0.109040879,-0.015605542,-0.086334109,0.125000000,-0.937500000,-3.000000000,-92.392524719,151.101089478,-0.383148283,1032.478271484,6.161587715,0.000000000,31.929998398,32.680000305,32.630001068,32.989997864,
67248,169.277019000,169.266846000,152.011841000,-0.087035656,-0.428224206,10.060088158,0.077359900,-0.077409148,0.130032450,0.125000000,-0.937500000,-3.000000000,-92.390708923,151.101547241,-0.385737002,1032.478271484,6.161266327,0.000000000,31.929998398,32.680000305,32.630001068,32.989997864,
67250,169.282054000,169.286986000,152.011841000,-0.068000078,-0.425097138,10.063060760,0.064865984,0.135834485,0.068541855,0.125000000,-0.937500000,-3.000000000,-92.398048401,151.101989746,-0.388954073,1032.478271484,6.160943985,0.000000000,31.929998398,32.680000305,32.610000610,32.989997864,
67252,169.287089000,169.286986000,152.011841000,-0.060801823,-0.425091118,10.058296204,0.007260385,-0.108719163,-0.056315884,0.125000000,-1.000000000,-3.000000000,-92.398139954,151.101867676,-0.386904985,1032.478271484,6.160622120,0.000000000,31.929998398,32.680000305,32.610000610,32.989997864,
67253,169.289606000,169.286986000,152.011841000,-0.058396537,-0.425088376,10.055914879,0.036692630,0.105527438,-0.086678714,0.125000000,-1.000000000,-3.000000000,-92.394042969,151.101669312,-0.386172444,1032.478271484,6.160461426,0.000000000,31.929998398,32.680000305,32.610000610,32.989997864,
67255,169.294641000,169.286986000,152.011841000,-0.058350652,-0.432170987,10.058602333,0.025283013,0.014838693,-0.025672320,0.125000000,-1.000000000,-3.000000000,-92.394309998,151.101531982,-0.381948709,1032.478271484,6.160140038,0.000000000,31.929998398,32.680000305,32.639999390,32.989997864,
67257,169.299676000,169.286986000,152.011841000,-0.051205255,-0.434563696,10.060984612,0.114681974,-0.076386593,-0.055662226,0.125000000,-1.000000000,-3.000000000,-92.400924683,151.101348877,-0.380302608,1032.478271484,6.159818649,0.000000000,31.929998398,32.680000305,32.639999390,32.989997864,
67259,169.304711000,169.307126000,152.011841000,-0.046361752,-0.426550716,10.054735184,0.120128408,-0.045431804,0.006212257,0.062500000,-1.000000000,-2.937500000,-92.399765015,151.101074219,-0.378886998,1032.478271484,6.159497261,0.000000000,31.929998398,32.680000305,32.649997711,32.989997864,
67261,169.309746000,169.307126000,152.011841000,-0.048714209,-0.421762466,10.049970627,0.061263274,-0.045562007,-0.056350380,0.062500000,-1.000000000,-2.937500000,-92.399147034,151.100585938,-0.378969848,1032.478271484,6.159175873,0.000000000,31.929998398,32.680000305,32.649997711,32.989997864,
67263,169.314781000,169.307126000,152.011841000,-0.055796087,-0.419273317,10.047894478,0.049695712,-0.044405889,0.004751851,0.062500000,-1.000000000,-2.937500000,-92.398071289,151.100402832,-0.368509173,1032.478271484,6.158854485,0.000000000,31.929998398,32.680000305,32.680000305,32.989997864,
67265,169.319816000,169.307126000,152.011841000,-0.060641911,-0.424067557,10.057422638,-0.010634284,0.138545260,0.066127583,0.062500000,-1.000000000,-2.937500000,-92.401191711,151.100692749,-0.368223995,1032.478271484,6.158533096,0.000000000,31.929998398,32.680000305,32.680000305,32.989997864,
67267,169.324851000,169.327266000,152.011841000,-0.060791198,-0.427393645,10.065749168,0.025704136,-0.229527012,-0.056745172,0.125000000,-1.000000000,-3.000000000,-92.402359009,151.100677490,-0.367800534,1032.478271484,6.158211708,0.000000000,31.929998398,32.680000305,32.639999390,32.989997864,
67269,169.329886000,169.327266000,152.011841000,-0.063126005,-0.413034350,10.058602333,-0.093870811,0.075613074,-0.026769606,0.125000000,-1.000000000,-3.000000000,-92.398986816,151.100265503,-0.368036181,1032.478271484,6.157890320,0.000000000,31.929998398,32.680000305,32.639999390,32.989997864,
67271,169.334921000,169.327266000,152.011841000,-0.063108385,-0.403463274,10.056221008,0.113270365,-0.015368833,0.037516281,0.125000000,-1.000000000,-3.000000000,-92.395614624,151.100540161,-0.369716436,1032.478271484,6.157568932,0.000000000,31.929998398,32.680000305,32.639999390,32.989997864,
67273,169.339956000,169.327266000,152.011841000,-0.055945359,-0.403461576,10.056221008,0.053381559,0.075994343,0.067846976,0.125000000,-1.000000000,-3.000000000,-92.393257141,151.100708008,-0.369237453,1032.478271484,6.157247543,0.000000000,31.929998398,32.680000305,32.639999390,32.989997864,
67274,169.342474000,169.347406000,152.011841000,-0.055960659,-0.406682491,10.055324554,0.018120492,-0.077407978,0.036514230,0.125000000,-1.000000000,-3.000000000,-92.389488220,151.100814819,-0.371267766,1032.478271484,6.157086849,0.000000000,31.929998398,32.680000305,32.630001068,32.989997864,
67276,169.347509000,169.347406000,152.011841000,-0.063035578,-0.423418850,10.043414116,0.076580934,0.014440514,0.099190608,0.125000000,-1.000000000,-2.937500000,-92.389343262,151.101257324,-0.371562332,1032.478271484,6.156765461,0.000000000,31.929998398,32.680000305,32.630001068,32.989997864,
67278,169.352544000,169.347406000,152.011841000,-0.082182854,-0.437871009,10.040726662,0.147906035,0.013784229,-0.023082824,0.125000000,-1.000000000,-2.937500000,-92.395767212,151.100921631,-0.373822302,1032.478271484,6.156444073,0.000000000,31.929998398,32.680000305,32.599998474,32.989997864,
67280,169.357579000,169.347406000,152.011841000,-0.094156459,-0.430701524,10.045489311,-0.059928719,-0.140125170,0.036292825,0.125000000,-1.000000000,-2.937500000,-92.393936157,151.100784302,-0.376962572,1032.478271484,6.156122208,0.000000000,31.929998398,32.680000305,32.599998474,32.989997864,
67282,169.362614000,169.367546000,152.011841000,-0.082176886,-0.419382513,10.054735184,0.000575337,0.015277105,0.035856891,0.125000000,-1.000000000,-2.937500000,-92.397392273,151.100997925,-0.386535287,1032.478271484,6.155799866,0.000000000,31.929998398,32.680000305,32.649997711,32.989997864,
67284,169.367649000,169.367546000,152.011841000,-0.063163571,-0.416996658,10.066645622,0.090010792,0.046321224,-0.024972172,0.062500000,-1.000000000,-2.937500000,-92.396606445,151.100784302,-0.387280673,1032.478271484,6.155477524,0.000000000,31.929998398,32.680000305,32.649997711,32.989997864,
67286,169.372684000,169.367546000,152.011841000,-0.060839411,-0.417092264,10.066337585,0.071803324,0.044978611,-0.086325482,0.062500000,-1.000000000,-2.937500000,-92.393493652,151.100463867,-0.377245158,1032.478271484,6.155155182,0.000000000,31.929998398,32.680000305,32.619998932,32.989997864,
67288,169.377719000,169.367546000,152.011841000,-0.063156597,-0.426653057,10.056810379,0.040748909,0.136222526,0.037286792,0.062500000,-1.000000000,-2.937500000,-92.397499084,151.100662231,-0.377028316,1032.478271484,6.154832840,0.000000000,31.929998398,32.680000305,32.619998932,32.989997864,
67290,169.382754000,169.387686000,152.011841000,-0.058313090,-0.430600941,10.050559044,0.046299610,0.044637367,0.129871383,0.062500000,-1.000000000,-2.937500000,-92.398468018,151.101058960,-0.377977729,1032.478271484,6.154510498,0.000000000,31.929998398,32.680000305,32.630001068,32.989997864,
67292,169.387789000,169.387686000,152.011841000,-0.058295477,-0.425814301,10.048177719,-0.039673153,-0.107949004,-0.150119632,0.062500000,-1.000000000,-2.937500000,-92.398719788,151.100769043,-0.378025532,1032.478271484,6.154188156,0.000000000,31.929998398,32.680000305,32.630001068,32.989997864,
67294,169.392824000,169.387686000,152.011841000,-0.067729823,-0.408968270,10.041337967,0.155048504,0.169146761,-0.024284752,0.062500000,-1.000000000,-2.937500000,-92.397270203,151.100585938,-0.378018707,1032.478271484,6.153865814,0.000000000,31.929998398,32.680000305,32.659999847,32.989997864,
67296,169.397859000,169.387686000,152.011841000,-0.072434694,-0.404176265,10.031810760,0.065649427,0.046127364,0.036453880,0.062500000,-1.000000000,-2.937500000,-92.395416260,151.100753784,-0.377193928,1032.478271484,6.153543472,0.000000000,31.929998398,32.680000305,32.659999847,32.989997864,
67298,169.402894000,169.407826000,152.011841000,-0.072414733,-0.412177503,10.026149750,0.030235646,0.045665365,-0.025641425,0.062500000,-1.000000000,-2.937500000,-92.395919800,151.100524902,-0.379724592,1032.478271484,6.153221130,0.000000000,31.929998398,32.680000305,32.649997711,32.989997864,
67300,169.407929000,169.407826000,152.011841000,-0.072449975,-0.421750695,10.030915260,0.177934751,-0.045511898,0.037969381,0.125000000,-1.000000000,-3.000000000,-92.395057678,151.100662231,-0.382404625,1032.478271484,6.152896881,0.000000000,31.929998398,32.680000305,32.649997711,32.989997864,
67302,169.412964000,169.407826000,152.011841000,-0.067742787,-0.424977034,10.037163734,-0.005472476,-0.138345480,-0.025985641,0.125000000,-1.000000000,-3.000000000,-92.394981384,151.100448608,-0.381824911,1032.478271484,6.152572632,0.000000000,31.929998398,32.680000305,32.639999390,32.989997864,
67304,169.417999000,169.407826000,152.011841000,-0.063037910,-0.415415645,10.046693802,-0.007693248,0.075335383,0.160004914,0.125000000,-1.000000000,-3.000000000,-92.395111084,151.101028442,-0.382156193,1032.478271484,6.152248383,0.000000000,31.929998398,32.680000305,32.639999390,32.989997864,
67305,169.420516000,169.407826000,152.011841000,-0.063073151,-0.408243358,10.051456451,0.052916892,0.137108415,0.005863677,0.125000000,-1.000000000,-3.000000000,-92.391029358,151.101043701,-0.381288707,1032.478271484,6.152085781,0.000000000,31.929998398,32.680000305,32.639999390,32.989997864,
67307,169.425551000,169.427966000,152.011841000,-0.072626166,-0.402634680,10.054735184,0.118776247,0.107269458,-0.024578422,0.062500000,-0.937500000,-3.000000000,-92.390304565,151.100814819,-0.380563021,1032.478271484,6.151760578,0.000000000,31.929998398,32.680000305,32.649997711,32.989997864,
67309,169.430586000,169.427966000,152.011841000,-0.082247362,-0.400253415,10.064263344,-0.000226463,-0.015758740,0.035823781,0.062500000,-0.937500000,-3.000000000,-92.382934570,151.100997925,-0.386164755,1032.478271484,6.151435375,0.000000000,31.929998398,32.680000305,32.649997711,32.989997864,
67311,169.435621000,169.427966000,152.011841000,-0.084857091,-0.414723098,10.085395813,0.010511555,0.074674673,0.036768217,0.062500000,-0.937500000,-3.000000000,-92.383323669,151.101181030,-0.388189077,1032.478271484,6.151110172,0.000000000,31.929998398,32.680000305,32.619998932,32.989997864,
67313,169.440656000,169.427966000,152.011841000,-0.075253539,-0.429067671,10.078248978,-0.047054883,-0.169782981,-0.087991543,0.062500000,-0.937500000,-3.000000000,-92.383186340,151.100585938,-0.388032824,1032.478271484,6.150784969,0.000000000,31.929998398,32.680000305,32.619998932,32.989997864,
67315,169.445691000,169.448106000,152.011841000,-0.072727218,-0.435399652,10.062470436,0.046591390,0.105996110,0.006110792,0.125000000,-1.000000000,-3.000000000,-92.389213562,151.100555420,-0.385865897,1032.478271484,6.150460720,0.000000000,31.929998398,32.680000305,32.630001068,32.989997864,
67317,169.450726000,169.448106000,152.011841000,-0.079925500,-0.428229034,10.067234993,0.076663755,-0.107869416,0.006221115,0.125000000,-1.000000000,-3.000000000,-92.391319275,151.100677490,-0.390276611,1032.478271484,6.150136948,0.000000000,31.929998398,32.680000305,32.630001068,32.989997864,
67319,169.455761000,169.448106000,152.011841000,-0.079947770,-0.419401526,10.076172829,-0.000317070,-0.015720801,0.035859335,0.125000000,-1.000000000,-3.000000000,-92.391616821,151.100769043,-0.392633080,1032.478271484,6.149813652,0.000000000,31.929998398,32.680000305,32.649997711,32.989997864,
67321,169.460796000,169.448106000,152.011841000,-0.070414692,-0.419401437,10.078556061,0.208136350,0.138479903,-0.116410501,0.125000000,-1.000000000,-3.000000000,-92.390464783,151.100708008,-0.393243551,1032.478271484,6.149490356,0.000000000,31.929998398,32.680000305,32.649997711,32.989997864,
67323,169.465831000,169.468246000,152.011841000,-0.060857031,-0.417094439,10.068720818,-0.019423245,-0.078407370,0.067380324,0.062500000,-1.000000000,-3.062500000,-92.390678406,151.100448608,-0.391827941,1032.478271484,6.149167538,0.000000000,31.929998398,32.680000305,32.619998932,32.989997864,
67325,169.470866000,169.468246000,152.011841000,-0.060733695,-0.417079240,10.052044868,0.100000270,0.044735551,-0.054998044,0.062500000,-1.000000000,-3.062500000,-92.389930725,151.100418091,-0.389967531,1032.478271484,6.148845196,0.000000000,31.929998398,32.680000305,32.619998932,32.989997864,
67327,169.475901000,169.468246000,152.011841000,-0.070249140,-0.421861619,10.047282219,0.158015996,0.044656843,0.069643065,0.062500000,-1.000000000,-3.062500000,-92.389450073,151.100341797,-0.390566051,1032.478271484,6.148522854,0.000000000,31.929998398,32.680000305,32.619998932,32.989997864,
67329,169.480936000,169.468246000,152.011841000,-0.067896709,-0.421865433,10.052044868,0.100473791,-0.016379807,-0.116925515,0.062500000,-1.000000000,-3.062500000,-92.388748169,151.099868774,-0.390789747,1032.478271484,6.148200512,0.000000000,31.929998398,32.680000305,32.619998932,32.989997864,
67331,169.485971000,169.488386000,152.011841000,-0.060667854,-0.413025081,10.049073219,-0.067335956,0.136040822,0.097572580,0.062500000,-1.000000000,-3.000000000,-92.388687134,151.100143433,-0.390344054,1032.478271484,6.147878170,0.000000000,31.929998398,32.680000305,32.639999390,32.989997864,
67333,169.491006000,169.488386000,152.011841000,-0.063055523,-0.408241212,10.049073219,0.141188011,-0.076871805,0.037805859,0.062500000,-1.000000000,-3.000000000,-92.388023376,151.100402832,-0.389790803,1032.478271484,6.147555828,0.000000000,31.929998398,32.680000305,32.639999390,32.989997864,
67335,169.496041000,169.488386000,152.011841000,-0.072522797,-0.425717175,10.043722153,0.006052081,-0.137561351,-0.026315946,0.062500000,-1.000000000,-3.000000000,-92.387657166,151.100311279,-0.389652491,1032.478271484,6.147233486,0.000000000,31.929998398,32.680000305,32.659999847,32.989997864,
67336,169.498559000,169.488386000,152.011841000,-0.074910462,-0.440071046,10.043722153,0.153003499,-0.106558368,0.099355377,0.062500000,-1.000000000,-3.000000000,-92.390960693,151.100540161,-0.391815126,1032.478271484,6.147072315,0.000000000,31.929998398,32.680000305,32.659999847,32.989997864,
67338,169.503594000,169.508526000,152.011841000,-0.065509036,-0.445787102,10.052044868,-0.077968314,0.074684381,-0.119042583,0.062500000,-1.000000000,-3.000000000,-92.394935608,151.100296021,-0.391331047,1032.478271484,6.146749973,0.000000000,31.929998398,32.680000305,32.619998932,32.989997864,
67340,169.508629000,169.508526000,152.011841000,-0.063156597,-0.431437522,10.056810379,0.039283834,0.074752688,0.037272651,0.125000000,-1.062500000,-3.000000000,-92.395217896,151.100311279,-0.391200423,1032.478271484,6.146426678,0.000000000,31.929998398,32.680000305,32.619998932,32.989997864,
67342,169.513664000,169.508526000,152.011841000,-0.072661407,-0.426561236,10.059500694,0.000221661,-0.076611295,-0.088008925,0.125000000,-1.062500000,-3.000000000,-92.396072388,151.100128174,-0.392936170,1032.478271484,6.146103382,0.000000000,31.929998398,32.680000305,32.649997711,32.989997864,
67344,169.518699000,169.508526000,152.011841000,-0.072696649,-0.433742285,10.064263344,0.117774449,-0.015153042,0.006470351,0.125000000,-1.062500000,-3.000000000,-92.402641296,151.099777222,-0.393533826,1032.478271484,6.145780087,0.000000000,31.929998398,32.680000305,32.649997711,32.989997864,
67346,169.523734000,169.528666000,152.011841000,-0.063161239,-0.439353138,10.063365936,0.022757977,0.014550277,-0.025366897,0.125000000,-1.062500000,-3.000000000,-92.404525757,151.099777222,-0.391056985,1032.478271484,6.145457268,0.000000000,31.929998398,32.680000305,32.639999390,32.989997864,
67348,169.528769000,169.528666000,152.011841000,-0.063143626,-0.429782063,10.060984612,0.112060674,0.198608771,-0.116989188,0.062500000,-1.000000000,-3.000000000,-92.404983521,151.099456787,-0.391344696,1032.478271484,6.145134926,0.000000000,31.929998398,32.680000305,32.639999390,32.989997864,
67350,169.533804000,169.528666000,152.011841000,-0.067850821,-0.409810245,10.054735184,-0.001215453,0.075825348,0.005181952,0.062500000,-1.000000000,-3.000000000,-92.403610229,151.099594116,-0.391325921,1032.478271484,6.144812584,0.000000000,31.929998398,32.680000305,32.649997711,32.989997864,
67352,169.538839000,169.528666000,152.011841000,-0.072590925,-0.400238097,10.049970627,0.088560447,-0.045934997,-0.055691216,0.062500000,-1.000000000,-3.000000000,-92.397811890,151.098892212,-0.393473208,1032.478271484,6.144490242,0.000000000,31.929998398,32.680000305,32.649997711,32.989997864,
67354,169.543874000,169.548806000,152.011841000,-0.079786867,-0.408247352,10.051456451,0.110693246,0.045177538,0.037822481,0.062500000,-1.000000000,-3.000000000,-92.396186829,151.099136353,-0.393787414,1032.478271484,6.144167900,0.000000000,31.929998398,32.680000305,32.639999390,32.989997864,
67356,169.548909000,169.548806000,152.011841000,-0.075046755,-0.415427208,10.056221008,0.199775785,0.045654587,0.007860321,0.062500000,-1.000000000,-3.000000000,-92.395347595,151.099365234,-0.393862545,1032.478271484,6.143845558,0.000000000,31.929998398,32.680000305,32.639999390,32.989997864,
67358,169.553944000,169.548806000,152.011841000,-0.060837064,-0.417918772,10.063060760,0.181525946,0.013777292,-0.053558741,0.062500000,-1.000000000,-3.000000000,-92.394645691,151.099136353,-0.394113541,1032.478271484,6.143523216,0.000000000,31.929998398,32.680000305,32.610000610,32.989997864,
67360,169.558979000,169.548806000,152.011841000,-0.060889926,-0.413140833,10.070207596,-0.025306491,-0.048202887,-0.117965773,0.062500000,-1.000000000,-3.000000000,-92.393257141,151.098709106,-0.393714845,1032.478271484,6.143200874,0.000000000,31.929998398,32.680000305,32.610000610,32.989997864,
67362,169.564014000,169.568946000,152.011841000,-0.067987122,-0.411480635,10.067234993,0.192587540,-0.046817586,0.100947611,0.062500000,-1.000000000,-3.000000000,-92.391654968,151.099075317,-0.393240988,1032.478271484,6.142878532,0.000000000,31.929998398,32.680000305,32.630001068,32.989997864,
67364,169.569049000,169.568946000,152.011841000,-0.063176535,-0.413867384,10.062470436,0.015560878,0.074919969,-0.024977669,0.125000000,-1.000000000,-3.000000000,-92.390579224,151.099090576,-0.392625391,1032.478271484,6.142556667,0.000000000,31.929998398,32.680000305,32.630001068,32.989997864,
67365,169.571566000,169.568946000,152.011841000,-0.060753632,-0.413862467,10.057706833,-0.043666575,-0.078311108,0.005137583,0.125000000,-1.000000000,-3.000000000,-92.392555237,151.099105835,-0.387352377,1032.478271484,6.142395973,0.000000000,31.929998398,32.680000305,32.630001068,32.989997864,
67367,169.576601000,169.568946000,152.011841000,-0.053474247,-0.416150242,10.050867081,0.003155441,-0.046472874,0.159775689,0.125000000,-1.000000000,-3.000000000,-92.391891479,151.099700928,-0.386157930,1032.478271484,6.142074585,0.000000000,31.929998398,32.680000305,32.659999847,32.989997864,
67369,169.581636000,169.568946000,152.011841000,-0.053421393,-0.428104818,10.043722153,-0.083403438,-0.046175122,-0.089156412,0.125000000,-1.000000000,-3.000000000,-92.392143250,151.099822998,-0.384825975,1032.478271484,6.141753197,0.000000000,31.929998398,32.680000305,32.659999847,32.989997864,
67371,169.586671000,169.589086000,152.011841000,-0.055789128,-0.436106652,10.038060188,0.057739966,0.076150633,-0.025128867,0.062500000,-1.000000000,-3.000000000,-92.391960144,151.099822998,-0.384676576,1032.478271484,6.141431808,0.000000000,31.929998398,32.680000305,32.649997711,32.989997864,
67373,169.591706000,169.589086000,152.011841000,-0.046238411,-0.433712155,10.038060188,0.029290305,-0.076645613,-0.118443459,0.062500000,-1.000000000,-3.000000000,-92.398132324,151.099105835,-0.378097266,1032.478271484,6.141110420,0.000000000,31.929998398,32.680000305,32.649997711,32.989997864,
67375,169.596741000,169.589086000,152.011841000,-0.039196428,-0.434552163,10.051456451,0.079626776,0.075432666,0.130395710,0.062500000,-1.000000000,-3.000000000,-92.398803711,151.099365234,-0.374069065,1032.478271484,6.140788078,0.000000000,31.929998398,32.680000305,32.639999390,32.989997864,
67377,169.601776000,169.589086000,152.011841000,-0.051170014,-0.432167113,10.056221008,-0.066883773,-0.016615609,-0.026295654,0.062500000,-1.000000000,-3.000000000,-92.398803711,151.098999023,-0.371354848,1032.478271484,6.140465736,0.000000000,31.929998398,32.680000305,32.639999390,32.989997864,
67379,169.606811000,169.609226000,152.011841000,-0.058418818,-0.430613995,10.064851761,0.045497600,-0.138819948,0.006177866,0.062500000,-1.000000000,-3.062500000,-92.398872375,151.098922729,-0.370040864,1032.478271484,6.140143394,0.000000000,31.929998398,32.680000305,32.630001068,32.989997864,
67381,169.611846000,169.609226000,152.011841000,-0.058454052,-0.435402751,10.069617271,0.103691131,-0.077523343,0.099835820,0.062500000,-1.000000000,-3.062500000,-92.406440735,151.099151611,-0.369031698,1032.478271484,6.139821053,0.000000000,31.929998398,32.680000305,32.630001068,32.989997864,
67383,169.616881000,169.609226000,152.011841000,-0.058267213,-0.437683582,10.053249359,0.153101683,-0.075624175,-0.024262726,0.062500000,-1.000000000,-3.062500000,-92.405700684,151.099105835,-0.368546724,1032.478271484,6.139498711,0.000000000,31.929998398,32.680000305,32.659999847,32.989997864,
67385,169.621916000,169.609226000,152.011841000,-0.062954463,-0.442458272,10.041337967,0.091507353,0.107021488,0.160956055,0.062500000,-1.000000000,-3.062500000,-92.413269043,151.099746704,-0.367981523,1032.478271484,6.139176369,0.000000000,31.929998398,32.680000305,32.659999847,32.989997864,
67386,169.624434000,169.629366000,152.011841000,-0.065375045,-0.443289936,10.042823792,0.086823441,0.045764562,0.006160871,0.062500000,-1.000000000,-3.062500000,-92.409149170,151.099777222,-0.369361252,1032.478271484,6.139015198,0.000000000,31.929998398,32.680000305,32.649997711,32.989997864,
67388,169.629469000,169.629366000,152.011841000,-0.067797959,-0.438510388,10.047589302,0.058162265,-0.015297329,-0.087189205,0.125000000,-1.000000000,-3.000000000,-92.417060852,151.099685669,-0.368594557,1032.478271484,6.138692856,0.000000000,31.929998398,32.680000305,32.649997711,32.989997864,
67390,169.634504000,169.629366000,152.011841000,-0.070190288,-0.429681033,10.054144859,0.099055141,-0.014544087,0.036694899,0.125000000,-1.000000000,-3.000000000,-92.416831970,151.099884033,-0.369177699,1032.478271484,6.138370514,0.000000000,31.929998398,32.680000305,32.669998169,32.989997864,
67392,169.639539000,169.629366000,152.011841000,-0.067802615,-0.427288234,10.054144859,-0.048550908,-0.076172888,-0.027021162,0.125000000,-1.000000000,-3.000000000,-92.416961670,151.099502563,-0.369467974,1032.478271484,6.138048172,0.000000000,31.929998398,32.680000305,32.669998169,32.989997864,
67394,169.644574000,169.649506000,152.011841000,-0.058398869,-0.421869665,10.059192657,-0.021620218,-0.109054565,0.098449133,0.125000000,-1.000000000,-3.000000000,-92.416748047,151.099639893,-0.368934363,1032.478271484,6.137725830,0.000000000,31.929998398,32.680000305,32.619998932,32.989997864,
67396,169.649609000,169.649506000,152.011841000,-0.056028813,-0.412302345,10.061574936,0.009979974,0.075213775,-0.148737207,0.125000000,-1.000000000,-3.000000000,-92.416595459,151.099029541,-0.367754430,1032.478271484,6.137403488,0.000000000,31.929998398,32.680000305,32.619998932,32.989997864,
67398,169.654644000,169.649506000,152.011841000,-0.060755957,-0.413035959,10.060984612,-0.038142126,-0.108072750,0.035845872,0.125000000,-1.000000000,-3.000000000,-92.415283203,151.099288940,-0.363331765,1032.478271484,6.137081146,0.000000000,31.929998398,32.680000305,32.639999390,32.989997864,
67400,169.659679000,169.649506000,152.011841000,-0.055998214,-0.417821437,10.063365936,0.138686359,0.198361024,0.069253847,0.125000000,-1.000000000,-3.000000000,-92.410270691,151.099349976,-0.362631679,1032.478271484,6.136758804,0.000000000,31.929998398,32.680000305,32.639999390,32.989997864,
67402,169.664714000,169.669646000,152.011841000,-0.055901814,-0.416894138,10.062187195,0.075383835,0.108125255,0.005352227,0.125000000,-1.000000000,-3.000000000,-92.410255432,151.099655151,-0.362815261,1032.478271484,6.136436462,0.000000000,31.929998398,32.680000305,32.680000305,32.989997864,
67404,169.669749000,169.669646000,152.011841000,-0.055884197,-0.416891992,10.059805870,0.195795700,-0.104960077,-0.148207024,0.125000000,-1.000000000,-3.000000000,-92.409484863,151.098937988,-0.362556547,1032.478271484,6.136114597,0.000000000,31.929998398,32.680000305,32.680000305,32.989997864,
67406,169.674784000,169.669646000,152.011841000,-0.053522453,-0.420202225,10.051456451,0.110121436,-0.076852113,-0.024168465,0.125000000,-1.000000000,-3.000000000,-92.409294128,151.098571777,-0.362375557,1032.478271484,6.135793209,0.000000000,31.929998398,32.680000305,32.639999390,32.989997864,
67408,169.679819000,169.669646000,152.011841000,-0.067795649,-0.417806864,10.044309616,0.109934881,-0.046236221,-0.024079338,0.125000000,-1.000000000,-3.000000000,-92.408699036,151.098327637,-0.362378955,1032.478271484,6.135471821,0.000000000,31.929998398,32.680000305,32.639999390,32.989997864,
67410,169.684854000,169.689786000,152.011841000,-0.074855268,-0.414576799,10.033296585,0.143635035,0.106756181,0.161956474,0.125000000,-1.000000000,-3.000000000,-92.407432556,151.099166870,-0.363083333,1032.478271484,6.135150433,0.000000000,31.929998398,32.680000305,32.649997711,32.989997864,
67412,169.689889000,169.689786000,152.011841000,-0.067674629,-0.424141854,10.030915260,-0.033450317,0.075478770,0.066822194,0.125000000,-1.000000000,-3.000000000,-92.408233643,151.099349976,-0.362869024,1032.478271484,6.134828568,0.000000000,31.929998398,32.680000305,32.649997711,32.989997864,
67414,169.694924000,169.689786000,152.011841000,-0.063015640,-0.433812320,10.037752151,0.008211915,-0.017193614,-0.024965009,0.125000000,-1.000000000,-3.000000000,-92.409919739,151.099288940,-0.362470329,1032.478271484,6.134506226,0.000000000,31.929998398,32.680000305,32.619998932,32.989997864,
67416,169.699959000,169.689786000,152.011841000,-0.058293145,-0.424248815,10.044899940,-0.112598874,0.042893857,0.190419748,0.125000000,-1.000000000,-3.000000000,-92.410583496,151.099929810,-0.362215012,1032.478271484,6.134182930,0.000000000,31.929998398,32.680000305,32.619998932,32.989997864,
67418,169.704994000,169.709926000,152.011841000,-0.063090764,-0.408245534,10.053838730,-0.097242258,-0.016638609,-0.088789538,0.125000000,-1.000000000,-3.000000000,-92.408592224,151.099731445,-0.362367004,1032.478271484,6.133859634,0.000000000,31.929998398,32.680000305,32.639999390,32.989997864,
67420,169.710029000,169.709926000,152.011841000,-0.067918986,-0.410645425,10.060984612,0.080985770,-0.046268344,-0.117624760,0.125000000,-1.000000000,-3.000000000,-92.407020569,151.099472046,-0.361119628,1032.478271484,6.133536339,0.000000000,31.929998398,32.680000305,32.639999390,32.989997864,
67422,169.715064000,169.709926000,152.011841000,-0.070359513,-0.422613621,10.068131447,0.049954191,-0.016144861,0.006069610,0.125000000,-1.000000000,-3.000000000,-92.407966614,151.099044800,-0.362914294,1032.478271484,6.133213043,0.000000000,31.929998398,32.680000305,32.639999390,32.989997864,
67423,169.717581000,169.709926000,152.011841000,-0.075152479,-0.429793626,10.070513725,-0.039508164,-0.047276489,0.066906519,0.125000000,-1.000000000,-3.000000000,-92.405448914,151.099212646,-0.367219090,1032.478271484,6.133051395,0.000000000,31.929998398,32.680000305,32.639999390,32.989997864,
67425,169.722616000,169.709926000,152.011841000,-0.084685534,-0.434578151,10.068131447,0.049898267,0.014432563,0.006043984,0.125000000,-1.000000000,-3.000000000,-92.405967712,151.099319458,-0.370954424,1032.478271484,6.132728100,0.000000000,31.929998398,32.680000305,32.639999390,32.989997864,
67427,169.727651000,169.730066000,152.011841000,-0.077487282,-0.425003201,10.063365936,0.049805313,-0.107836947,0.036876887,0.062500000,-1.000000000,-3.000000000,-92.406471252,151.099441528,-0.373996496,1032.478271484,6.132405281,0.000000000,31.929998398,32.680000305,32.639999390,32.989997864,
67429,169.732686000,169.730066000,152.011841000,-0.065566540,-0.415433645,10.065749168,-0.098970935,0.044282570,0.066261962,0.062500000,-1.000000000,-3.000000000,-92.406883240,151.099380493,-0.373165756,1032.478271484,6.132082939,0.000000000,31.929998398,32.680000305,32.639999390,32.989997864,
67431,169.737721000,169.730066000,152.011841000,-0.053645782,-0.420217484,10.068131447,-0.009260562,0.014305672,0.005354962,0.062500000,-1.000000000,-3.000000000,-92.406402588,151.099273682,-0.372275233,1032.478271484,6.131760597,0.000000000,31.929998398,32.680000305,32.639999390,32.989997864,
67433,169.742756000,169.730066000,152.011841000,-0.044042245,-0.422600865,10.060984612,-0.068959832,-0.047263630,0.066559859,0.062500000,-1.000000000,-3.000000000,-92.404090881,151.099227905,-0.368649185,1032.478271484,6.131438255,0.000000000,31.929998398,32.680000305,32.639999390,32.989997864,
67435,169.747791000,169.750206000,152.011841000,-0.048782345,-0.415420979,10.056221008,0.169858798,-0.015097599,-0.116511673,0.062500000,-1.000000000,-3.000000000,-92.404594421,151.099411011,-0.359735638,1032.478271484,6.131116867,0.000000000,31.929998398,32.680000305,32.639999390,32.989997864,
67437,169.752826000,169.750206000,152.011841000,-0.065460823,-0.408243954,10.051456451,-0.068433911,0.014113946,-0.026400523,0.062500000,-1.000000000,-3.000000000,-92.403182983,151.099609375,-0.360788345,1032.478271484,6.130795479,0.000000000,31.929998398,32.680000305,32.639999390,32.989997864,
67439,169.757861000,169.750206000,152.011841000,-0.070233837,-0.413856059,10.048177719,0.043309696,0.014049806,0.037147012,0.062500000,-1.000000000,-3.000000000,-92.401931763,151.099639893,-0.361227214,1032.478271484,6.130474091,0.000000000,31.929998398,32.680000305,32.630001068,32.989997864,
67441,169.762896000,169.750206000,152.011841000,-0.065405630,-0.425809473,10.041031837,-0.015516162,0.044505246,-0.025480928,0.062500000,-1.000000000,-3.000000000,-92.402740479,151.099594116,-0.360837013,1032.478271484,6.130152702,0.000000000,31.929998398,32.680000305,32.630001068,32.989997864,
67443,169.767931000,169.770346000,152.011841000,-0.065352775,-0.425802946,10.033885002,0.014774126,-0.108128779,-0.056223810,0.062500000,-1.000000000,-3.000000000,-92.403556824,151.099365234,-0.360234231,1032.478271484,6.129830837,0.000000000,31.929998398,32.680000305,32.630001068,32.989997864,
